session	period	subject	uniquegroup	uniquesubject	numrounds	votesneeded	numdemocracy	groupnum	leader	playernum	wonvote	totalvotes	dist1	dist2	dist3	dist4	dist5	dist6	pubgood	roundpayoff	vote	vote1	vote2	vote3	vote4	vote5	vote6	earlyend	timesleader	endconflict	oppregimetype	grouproundpoints	opproundpoints	offer1	accept1	oppresponse1	finalgrouppoints	battle1	battle2	battle3	oppbattle1	oppbattle2	oppbattle3	wins	currentgrouppoints	currentopppoints	remainingwins	oppremainingwins	offer2	accept2	oppresponse2	battle4	battle5	battle6	oppbattle4	oppbattle5	oppbattle6	offer3	accept3	oppresponse3	battle7	battle8	battle9	wonwar	oppbattle7	oppbattle8	oppbattle9	gender	major
1	1	1	11	112	18	3	2	1	0	2	0	1	64	10	10	10	10	10	0	10.0	1	-1	1	0	0	0	0	0	1	0	1	100	200	33.333332	0	1	114.0	0	0	0	0	0	0	5.0	15	0	0.0	0.0	40.74074	0	1	0	0	0	0	0	0	100.0	0	1	0	0	0	1.0	0	0	0	0	2
1	1	2	13	132	18	1	2	3	0	2	1	1	0	0	0	0	0	0	0	0.0	0	-1	0	0	0	1	0	0	1	0	3	200	100	66.666664	1	0	0.0	0	0	0	0	0	0	4.0	0	15	0.0	0.0	59.25926	1	0	0	0	0	0	0	0	0.0	1	0	0	0	0	0.0	0	0	0	1	2
1	1	3	12	122	18	3	2	2	0	2	0	0	0	0	0	0	0	0	0	0.0	0	-1	0	0	0	0	0	0	1	1	1	100	200	33.333332	0	1	0.0	0	0	0	0	0	0	3.0	0	150	0.0	0.0	18.779343	0	1	0	0	0	0	0	0	0.0	1	1	0	0	0	-1.0	0	0	0	0	0
1	1	4	12	124	18	3	2	2	0	4	0	0	0	0	0	0	0	0	0	0.0	0	-1	0	0	0	0	0	0	1	1	1	100	200	33.333332	0	1	0.0	0	0	0	0	0	0	3.0	0	150	0.0	0.0	18.779343	0	1	0	0	0	0	0	0	0.0	1	1	0	0	0	-1.0	0	0	0	0	0
1	1	5	10	104	18	1	2	0	0	4	0	0	0	0	0	0	0	0	0	0.0	0	-1	0	0	0	0	0	0	1	1	3	200	100	66.666664	1	0	250.0	0	0	0	0	0	0	3.0	150	0	0.0	0.0	81.22066	1	0	0	0	0	0	0	0	100.0	1	1	0	0	0	-1.0	0	0	0	0	1
1	1	6	12	123	18	3	2	2	0	3	0	0	0	0	0	0	0	0	0	0.0	0	-1	0	0	0	0	0	0	1	1	1	100	200	33.333332	0	1	0.0	0	0	0	0	0	0	3.0	0	150	0.0	0.0	18.779343	0	1	0	0	0	0	0	0	0.0	1	1	0	0	0	-1.0	0	0	0	1	2
1	1	7	10	101	18	1	2	0	1	1	0	0	0	0	0	0	0	0	0	0.0	-1	-1	0	0	0	0	0	0	1	1	3	200	100	66.666664	1	0	250.0	7	10	10	0	0	0	3.0	150	0	2.0	2.0	81.22066	1	0	5	8	10	10	40	50	100.0	1	1	0	0	0	-1.0	0	0	0	1	0
1	1	8	10	105	18	1	2	0	0	5	0	0	0	0	0	0	0	0	0	0.0	0	-1	0	0	0	0	0	0	1	1	3	200	100	66.666664	1	0	250.0	0	0	0	0	0	0	3.0	150	0	0.0	0.0	81.22066	1	0	0	0	0	0	0	0	100.0	1	1	0	0	0	-1.0	0	0	0	0	0
1	1	9	11	116	18	3	2	1	0	6	0	1	64	10	10	10	10	10	0	10.0	0	-1	1	0	0	0	0	0	1	0	1	100	200	33.333332	0	1	114.0	0	0	0	0	0	0	5.0	15	0	0.0	0.0	40.74074	0	1	0	0	0	0	0	0	100.0	0	1	0	0	0	1.0	0	0	0	0	2
1	1	10	13	131	18	1	2	3	1	1	1	1	0	0	0	0	0	0	0	0.0	-1	-1	0	0	0	1	0	0	1	0	3	200	100	66.666664	1	0	0.0	0	0	0	15	15	15	4.0	0	14	2.0	2.0	59.25926	1	0	60	70	70	15	15	10	0.0	1	0	0	0	0	0.0	1	0	0	0	2
1	1	11	10	103	18	1	2	0	0	3	0	0	0	0	0	0	0	0	0	0.0	0	-1	0	0	0	0	0	0	1	1	3	200	100	66.666664	1	0	250.0	0	0	0	0	0	0	3.0	150	0	0.0	0.0	81.22066	1	0	0	0	0	0	0	0	100.0	1	1	0	0	0	-1.0	0	0	0	1	0
1	1	12	10	106	18	1	2	0	0	6	0	0	0	0	0	0	0	0	0	0.0	0	-1	0	0	0	0	0	0	1	1	3	200	100	66.666664	1	0	250.0	0	0	0	0	0	0	3.0	150	0	0.0	0.0	81.22066	1	0	0	0	0	0	0	0	100.0	1	1	0	0	0	-1.0	0	0	0	1	0
1	1	13	10	102	18	1	2	0	0	2	0	0	0	0	0	0	0	0	0	0.0	0	-1	0	0	0	0	0	0	1	1	3	200	100	66.666664	1	0	250.0	0	0	0	0	0	0	3.0	150	0	0.0	0.0	81.22066	1	0	0	0	0	0	0	0	100.0	1	1	0	0	0	-1.0	0	0	0	0	0
1	1	14	13	136	18	1	2	3	0	6	1	1	0	0	0	0	0	0	0	0.0	0	-1	0	0	0	1	0	0	1	0	3	200	100	66.666664	1	0	0.0	0	0	0	0	0	0	4.0	0	15	0.0	0.0	59.25926	1	0	0	0	0	0	0	0	0.0	1	0	0	0	0	0.0	0	0	0	0	0
1	1	15	13	134	18	1	2	3	0	4	1	1	0	0	0	0	0	0	0	0.0	0	-1	0	0	0	1	0	0	1	0	3	200	100	66.666664	1	0	0.0	0	0	0	0	0	0	4.0	0	15	0.0	0.0	59.25926	1	0	0	0	0	0	0	0	0.0	1	0	0	0	0	0.0	0	0	0	0	2
1	1	16	12	125	18	3	2	2	0	5	0	0	0	0	0	0	0	0	0	0.0	0	-1	0	0	0	0	0	0	1	1	1	100	200	33.333332	0	1	0.0	0	0	0	0	0	0	3.0	0	150	0.0	0.0	18.779343	0	1	0	0	0	0	0	0	0.0	1	1	0	0	0	-1.0	0	0	0	1	0
1	1	17	11	114	18	3	2	1	0	4	0	1	64	10	10	10	10	10	0	10.0	0	-1	1	0	0	0	0	0	1	0	1	100	200	33.333332	0	1	114.0	0	0	0	0	0	0	5.0	15	0	0.0	0.0	40.74074	0	1	0	0	0	0	0	0	100.0	0	1	0	0	0	1.0	0	0	0	1	1
1	1	18	13	135	18	1	2	3	0	5	1	1	0	0	0	0	0	0	0	0.0	1	-1	0	0	0	1	0	0	1	0	3	200	100	66.666664	1	0	0.0	0	0	0	0	0	0	4.0	0	15	0.0	0.0	59.25926	1	0	0	0	0	0	0	0	0.0	1	0	0	0	0	0.0	0	0	0	1	0
1	1	19	13	133	18	1	2	3	0	3	1	1	0	0	0	0	0	0	0	0.0	0	-1	0	0	0	1	0	0	1	0	3	200	100	66.666664	1	0	0.0	0	0	0	0	0	0	4.0	0	15	0.0	0.0	59.25926	1	0	0	0	0	0	0	0	0.0	1	0	0	0	0	0.0	0	0	0	1	2
1	1	20	12	121	18	3	2	2	1	1	0	0	0	0	0	0	0	0	0	0.0	-1	-1	0	0	0	0	0	0	1	1	1	100	200	33.333332	0	1	0.0	0	0	0	7	10	10	3.0	0	150	2.0	2.0	18.779343	0	1	10	40	50	5	8	10	0.0	1	1	0	0	0	-1.0	0	0	0	0	0
1	1	21	12	126	18	3	2	2	0	6	0	0	0	0	0	0	0	0	0	0.0	0	-1	0	0	0	0	0	0	1	1	1	100	200	33.333332	0	1	0.0	0	0	0	0	0	0	3.0	0	150	0.0	0.0	18.779343	0	1	0	0	0	0	0	0	0.0	1	1	0	0	0	-1.0	0	0	0	1	0
1	1	22	11	111	18	3	2	1	1	1	0	1	64	10	10	10	10	10	0	0.0	-1	-1	1	0	0	0	0	0	1	0	1	100	200	33.333332	0	1	114.0	15	15	15	0	0	0	5.0	14	0	2.0	2.0	40.74074	0	1	15	15	10	60	70	70	100.0	0	1	1	0	0	1.0	0	0	0	1	0
1	1	23	11	115	18	3	2	1	0	5	0	1	64	10	10	10	10	10	0	10.0	0	-1	1	0	0	0	0	0	1	0	1	100	200	33.333332	0	1	114.0	0	0	0	0	0	0	5.0	15	0	0.0	0.0	40.74074	0	1	0	0	0	0	0	0	100.0	0	1	0	0	0	1.0	0	0	0	0	0
1	1	24	11	113	18	3	2	1	0	3	0	1	64	10	10	10	10	10	0	10.0	0	-1	1	0	0	0	0	0	1	0	1	100	200	33.333332	0	1	114.0	0	0	0	0	0	0	5.0	15	0	0.0	0.0	40.74074	0	1	0	0	0	0	0	0	100.0	0	1	0	0	0	1.0	0	0	0	1	0
1	2	1	11	112	18	3	2	1	1	2	0	0	0	0	0	0	0	0	0	0.0	-1	0	-1	0	0	0	0	0	1	1	1	200	100	66.666664	1	1	266.66666	0	0	0	0	0	0	0.0	0	0	0.0	0.0	0.0	0	0	0	0	0	0	0	0	0.0	0	0	0	0	0	-1.0	0	0	0	0	2
1	2	2	13	132	18	1	2	3	0	2	1	2	20	20	20	20	20	20	13	26.066668	0	-1	0	0	1	1	0	0	2	1	3	100	200	33.333332	1	1	133.33333	0	0	0	0	0	0	0.0	0	0	0.0	0.0	0.0	0	0	0	0	0	0	0	0	0.0	0	0	0	0	0	-1.0	0	0	0	1	2
1	2	3	12	122	18	3	2	2	0	2	0	0	0	0	0	0	0	0	0	0.0	0	0	0	-1	0	0	0	0	1	1	1	150	150	50.0	1	1	200.0	0	0	0	0	0	0	0.0	0	0	0.0	0.0	0.0	0	0	0	0	0	0	0	0	0.0	0	0	0	0	0	-1.0	0	0	0	0	0
1	2	4	12	124	18	3	2	2	0	4	0	0	0	0	0	0	0	0	0	0.0	0	0	0	-1	0	0	0	0	1	1	1	150	150	50.0	1	1	200.0	0	0	0	0	0	0	0.0	0	0	0.0	0.0	0.0	0	0	0	0	0	0	0	0	0.0	0	0	0	0	0	-1.0	0	0	0	0	0
1	2	5	10	104	18	1	2	0	0	4	1	4	0	0	0	0	0	0	200	93.333336	1	1	1	-1	1	0	1	0	1	1	3	150	150	50.0	1	1	200.0	0	0	0	0	0	0	0.0	0	0	0.0	0.0	0.0	0	0	0	0	0	0	0	0	0.0	0	0	0	0	0	-1.0	0	0	0	0	1
1	2	6	12	123	18	3	2	2	1	3	0	0	0	0	0	0	0	0	0	0.0	-1	0	0	-1	0	0	0	0	1	1	1	150	150	50.0	1	1	200.0	0	0	0	0	0	0	0.0	0	0	0.0	0.0	0.0	0	0	0	0	0	0	0	0	0.0	0	0	0	0	0	-1.0	0	0	0	1	2
1	2	7	10	101	18	1	2	0	0	1	1	4	0	0	0	0	0	0	200	93.333336	1	1	1	-1	1	0	1	0	1	1	3	150	150	50.0	1	1	200.0	0	0	0	0	0	0	0.0	0	0	0.0	0.0	0.0	0	0	0	0	0	0	0	0	0.0	0	0	0	0	0	-1.0	0	0	0	1	0
1	2	8	10	105	18	1	2	0	0	5	1	4	0	0	0	0	0	0	200	93.333336	0	1	1	-1	1	0	1	0	1	1	3	150	150	50.0	1	1	200.0	0	0	0	0	0	0	0.0	0	0	0.0	0.0	0.0	0	0	0	0	0	0	0	0	0.0	0	0	0	0	0	-1.0	0	0	0	0	0
1	2	9	11	116	18	3	2	1	0	6	0	0	0	0	0	0	0	0	0	0.0	0	0	-1	0	0	0	0	0	1	1	1	200	100	66.666664	1	1	266.66666	0	0	0	0	0	0	0.0	0	0	0.0	0.0	0.0	0	0	0	0	0	0	0	0	0.0	0	0	0	0	0	-1.0	0	0	0	0	2
1	2	10	13	131	18	1	2	3	1	1	1	2	20	20	20	20	20	20	13	26.066668	-1	-1	0	0	1	1	0	0	2	1	3	100	200	33.333332	1	1	133.33333	0	0	0	0	0	0	0.0	0	0	0.0	0.0	0.0	0	0	0	0	0	0	0	0	0.0	0	0	0	0	0	-1.0	0	0	0	0	2
1	2	11	10	103	18	1	2	0	1	3	1	4	0	0	0	0	0	0	200	93.333336	-1	1	1	-1	1	0	1	0	1	1	3	150	150	50.0	1	1	200.0	0	0	0	0	0	0	0.0	0	0	0.0	0.0	0.0	0	0	0	0	0	0	0	0	0.0	0	0	0	0	0	-1.0	0	0	0	1	0
1	2	12	10	106	18	1	2	0	0	6	1	4	0	0	0	0	0	0	200	93.333336	1	1	1	-1	1	0	1	0	1	1	3	150	150	50.0	1	1	200.0	0	0	0	0	0	0	0.0	0	0	0.0	0.0	0.0	0	0	0	0	0	0	0	0	0.0	0	0	0	0	0	-1.0	0	0	0	1	0
1	2	13	10	102	18	1	2	0	0	2	1	4	0	0	0	0	0	0	200	93.333336	1	1	1	-1	1	0	1	0	1	1	3	150	150	50.0	1	1	200.0	0	0	0	0	0	0	0.0	0	0	0.0	0.0	0.0	0	0	0	0	0	0	0	0	0.0	0	0	0	0	0	-1.0	0	0	0	0	0
1	2	14	13	136	18	1	2	3	0	6	1	2	20	20	20	20	20	20	13	26.066668	0	-1	0	0	1	1	0	0	2	1	3	100	200	33.333332	1	1	133.33333	0	0	0	0	0	0	0.0	0	0	0.0	0.0	0.0	0	0	0	0	0	0	0	0	0.0	0	0	0	0	0	-1.0	0	0	0	0	0
1	2	15	13	134	18	1	2	3	0	4	1	2	20	20	20	20	20	20	13	26.066668	1	-1	0	0	1	1	0	0	2	1	3	100	200	33.333332	1	1	133.33333	0	0	0	0	0	0	0.0	0	0	0.0	0.0	0.0	0	0	0	0	0	0	0	0	0.0	0	0	0	0	0	-1.0	0	0	0	0	2
1	2	16	12	125	18	3	2	2	0	5	0	0	0	0	0	0	0	0	0	0.0	0	0	0	-1	0	0	0	0	1	1	1	150	150	50.0	1	1	200.0	0	0	0	0	0	0	0.0	0	0	0.0	0.0	0.0	0	0	0	0	0	0	0	0	0.0	0	0	0	0	0	-1.0	0	0	0	1	0
1	2	17	11	114	18	3	2	1	0	4	0	0	0	0	0	0	0	0	0	0.0	0	0	-1	0	0	0	0	0	1	1	1	200	100	66.666664	1	1	266.66666	0	0	0	0	0	0	0.0	0	0	0.0	0.0	0.0	0	0	0	0	0	0	0	0	0.0	0	0	0	0	0	-1.0	0	0	0	1	1
1	2	18	13	135	18	1	2	3	0	5	1	2	20	20	20	20	20	20	13	26.066668	1	-1	0	0	1	1	0	0	2	1	3	100	200	33.333332	1	1	133.33333	0	0	0	0	0	0	0.0	0	0	0.0	0.0	0.0	0	0	0	0	0	0	0	0	0.0	0	0	0	0	0	-1.0	0	0	0	1	0
1	2	19	13	133	18	1	2	3	0	3	1	2	20	20	20	20	20	20	13	26.066668	0	-1	0	0	1	1	0	0	2	1	3	100	200	33.333332	1	1	133.33333	0	0	0	0	0	0	0.0	0	0	0.0	0.0	0.0	0	0	0	0	0	0	0	0	0.0	0	0	0	0	0	-1.0	0	0	0	1	2
1	2	20	12	121	18	3	2	2	0	1	0	0	0	0	0	0	0	0	0	0.0	0	0	0	-1	0	0	0	0	1	1	1	150	150	50.0	1	1	200.0	0	0	0	0	0	0	0.0	0	0	0.0	0.0	0.0	0	0	0	0	0	0	0	0	0.0	0	0	0	0	0	-1.0	0	0	0	0	0
1	2	21	12	126	18	3	2	2	0	6	0	0	0	0	0	0	0	0	0	0.0	0	0	0	-1	0	0	0	0	1	1	1	150	150	50.0	1	1	200.0	0	0	0	0	0	0	0.0	0	0	0.0	0.0	0.0	0	0	0	0	0	0	0	0	0.0	0	0	0	0	0	-1.0	0	0	0	1	0
1	2	22	11	111	18	3	2	1	0	1	0	0	0	0	0	0	0	0	0	0.0	0	0	-1	0	0	0	0	0	1	1	1	200	100	66.666664	1	1	266.66666	0	0	0	0	0	0	0.0	0	0	0.0	0.0	0.0	0	0	0	0	0	0	0	0	0.0	0	0	0	0	0	-1.0	0	0	0	1	0
1	2	23	11	115	18	3	2	1	0	5	0	0	0	0	0	0	0	0	0	0.0	0	0	-1	0	0	0	0	0	1	1	1	200	100	66.666664	1	1	266.66666	0	0	0	0	0	0	0.0	0	0	0.0	0.0	0.0	0	0	0	0	0	0	0	0	0.0	0	0	0	0	0	-1.0	0	0	0	0	0
1	2	24	11	113	18	3	2	1	0	3	0	0	0	0	0	0	0	0	0	0.0	0	0	-1	0	0	0	0	0	1	1	1	200	100	66.666664	1	1	266.66666	0	0	0	0	0	0	0.0	0	0	0.0	0.0	0.0	0	0	0	0	0	0	0	0	0.0	0	0	0	0	0	-1.0	0	0	0	1	0
1	3	1	11	112	18	3	2	1	0	2	1	4	0	0	60	0	0	0	207	96.6	1	1	1	-1	0	1	1	0	1	1	1	200	100	66.666664	1	1	266.66666	0	0	0	0	0	0	0.0	0	0	0.0	0.0	0.0	0	0	0	0	0	0	0	0	0.0	0	0	0	0	0	-1.0	0	0	0	0	2
1	3	2	13	132	18	1	2	3	0	2	1	1	0	0	0	0	0	0	0	0.0	1	-1	1	0	0	0	0	0	3	1	3	100	200	33.333332	1	1	133.33333	0	0	0	0	0	0	0.0	0	0	0.0	0.0	0.0	0	0	0	0	0	0	0	0	0.0	0	0	0	0	0	-1.0	0	0	0	1	2
1	3	3	12	122	18	3	2	2	0	2	0	2	0	0	0	0	0	0	40	18.666666	0	1	0	0	-1	1	0	0	1	1	1	100	200	33.333332	1	1	133.33333	0	0	0	0	0	0	0.0	0	0	0.0	0.0	0.0	0	0	0	0	0	0	0	0	0.0	0	0	0	0	0	-1.0	0	0	0	0	0
1	3	4	12	124	18	3	2	2	1	4	0	2	0	0	0	0	0	0	40	0.0	-1	1	0	0	-1	1	0	0	1	1	1	100	200	33.333332	1	1	133.33333	0	0	0	0	0	0	0.0	0	0	0.0	0.0	0.0	0	0	0	0	0	0	0	0	0.0	0	0	0	0	0	-1.0	0	0	0	0	0
1	3	5	10	104	18	1	2	0	0	4	0	0	67	0	0	0	0	0	10	4.6666665	0	0	0	-1	0	0	0	0	2	1	3	200	100	66.666664	1	1	266.66666	0	0	0	0	0	0	0.0	0	0	0.0	0.0	0.0	0	0	0	0	0	0	0	0	0.0	0	0	0	0	0	-1.0	0	0	0	0	1
1	3	6	12	123	18	3	2	2	0	3	0	2	0	0	0	0	0	0	40	18.666666	0	1	0	0	-1	1	0	0	1	1	1	100	200	33.333332	1	1	133.33333	0	0	0	0	0	0	0.0	0	0	0.0	0.0	0.0	0	0	0	0	0	0	0	0	0.0	0	0	0	0	0	-1.0	0	0	0	1	2
1	3	7	10	101	18	1	2	0	0	1	0	0	67	0	0	0	0	0	10	71.666664	0	0	0	-1	0	0	0	0	2	1	3	200	100	66.666664	1	1	266.66666	0	0	0	0	0	0	0.0	0	0	0.0	0.0	0.0	0	0	0	0	0	0	0	0	0.0	0	0	0	0	0	-1.0	0	0	0	1	0
1	3	8	10	105	18	1	2	0	0	5	0	0	67	0	0	0	0	0	10	4.6666665	0	0	0	-1	0	0	0	0	2	1	3	200	100	66.666664	1	1	266.66666	0	0	0	0	0	0	0.0	0	0	0.0	0.0	0.0	0	0	0	0	0	0	0	0	0.0	0	0	0	0	0	-1.0	0	0	0	0	0
1	3	9	11	116	18	3	2	1	0	6	1	4	0	0	60	0	0	0	207	96.6	1	1	1	-1	0	1	1	0	1	1	1	200	100	66.666664	1	1	266.66666	0	0	0	0	0	0	0.0	0	0	0.0	0.0	0.0	0	0	0	0	0	0	0	0	0.0	0	0	0	0	0	-1.0	0	0	0	0	2
1	3	10	13	131	18	1	2	3	1	1	1	1	0	0	0	0	0	0	0	0.0	-1	-1	1	0	0	0	0	0	3	1	3	100	200	33.333332	1	1	133.33333	0	0	0	0	0	0	0.0	0	0	0.0	0.0	0.0	0	0	0	0	0	0	0	0	0.0	0	0	0	0	0	-1.0	0	0	0	0	2
1	3	11	10	103	18	1	2	0	1	3	0	0	67	0	0	0	0	0	10	0.0	-1	0	0	-1	0	0	0	0	2	1	3	200	100	66.666664	1	1	266.66666	0	0	0	0	0	0	0.0	0	0	0.0	0.0	0.0	0	0	0	0	0	0	0	0	0.0	0	0	0	0	0	-1.0	0	0	0	1	0
1	3	12	10	106	18	1	2	0	0	6	0	0	67	0	0	0	0	0	10	4.6666665	0	0	0	-1	0	0	0	0	2	1	3	200	100	66.666664	1	1	266.66666	0	0	0	0	0	0	0.0	0	0	0.0	0.0	0.0	0	0	0	0	0	0	0	0	0.0	0	0	0	0	0	-1.0	0	0	0	1	0
1	3	13	10	102	18	1	2	0	0	2	0	0	67	0	0	0	0	0	10	4.6666665	0	0	0	-1	0	0	0	0	2	1	3	200	100	66.666664	1	1	266.66666	0	0	0	0	0	0	0.0	0	0	0.0	0.0	0.0	0	0	0	0	0	0	0	0	0.0	0	0	0	0	0	-1.0	0	0	0	0	0
1	3	14	13	136	18	1	2	3	0	6	1	1	0	0	0	0	0	0	0	0.0	0	-1	1	0	0	0	0	0	3	1	3	100	200	33.333332	1	1	133.33333	0	0	0	0	0	0	0.0	0	0	0.0	0.0	0.0	0	0	0	0	0	0	0	0	0.0	0	0	0	0	0	-1.0	0	0	0	0	0
1	3	15	13	134	18	1	2	3	0	4	1	1	0	0	0	0	0	0	0	0.0	0	-1	1	0	0	0	0	0	3	1	3	100	200	33.333332	1	1	133.33333	0	0	0	0	0	0	0.0	0	0	0.0	0.0	0.0	0	0	0	0	0	0	0	0	0.0	0	0	0	0	0	-1.0	0	0	0	0	2
1	3	16	12	125	18	3	2	2	0	5	0	2	0	0	0	0	0	0	40	18.666666	1	1	0	0	-1	1	0	0	1	1	1	100	200	33.333332	1	1	133.33333	0	0	0	0	0	0	0.0	0	0	0.0	0.0	0.0	0	0	0	0	0	0	0	0	0.0	0	0	0	0	0	-1.0	0	0	0	1	0
1	3	17	11	114	18	3	2	1	0	4	1	4	0	0	60	0	0	0	207	96.6	0	1	1	-1	0	1	1	0	1	1	1	200	100	66.666664	1	1	266.66666	0	0	0	0	0	0	0.0	0	0	0.0	0.0	0.0	0	0	0	0	0	0	0	0	0.0	0	0	0	0	0	-1.0	0	0	0	1	1
1	3	18	13	135	18	1	2	3	0	5	1	1	0	0	0	0	0	0	0	0.0	0	-1	1	0	0	0	0	0	3	1	3	100	200	33.333332	1	1	133.33333	0	0	0	0	0	0	0.0	0	0	0.0	0.0	0.0	0	0	0	0	0	0	0	0	0.0	0	0	0	0	0	-1.0	0	0	0	1	0
1	3	19	13	133	18	1	2	3	0	3	1	1	0	0	0	0	0	0	0	0.0	0	-1	1	0	0	0	0	0	3	1	3	100	200	33.333332	1	1	133.33333	0	0	0	0	0	0	0.0	0	0	0.0	0.0	0.0	0	0	0	0	0	0	0	0	0.0	0	0	0	0	0	-1.0	0	0	0	1	2
1	3	20	12	121	18	3	2	2	0	1	0	2	0	0	0	0	0	0	40	18.666666	1	1	0	0	-1	1	0	0	1	1	1	100	200	33.333332	1	1	133.33333	0	0	0	0	0	0	0.0	0	0	0.0	0.0	0.0	0	0	0	0	0	0	0	0	0.0	0	0	0	0	0	-1.0	0	0	0	0	0
1	3	21	12	126	18	3	2	2	0	6	0	2	0	0	0	0	0	0	40	18.666666	0	1	0	0	-1	1	0	0	1	1	1	100	200	33.333332	1	1	133.33333	0	0	0	0	0	0	0.0	0	0	0.0	0.0	0.0	0	0	0	0	0	0	0	0	0.0	0	0	0	0	0	-1.0	0	0	0	1	0
1	3	22	11	111	18	3	2	1	0	1	1	4	0	0	60	0	0	0	207	96.6	1	1	1	-1	0	1	1	0	1	1	1	200	100	66.666664	1	1	266.66666	0	0	0	0	0	0	0.0	0	0	0.0	0.0	0.0	0	0	0	0	0	0	0	0	0.0	0	0	0	0	0	-1.0	0	0	0	1	0
1	3	23	11	115	18	3	2	1	0	5	1	4	0	0	60	0	0	0	207	96.6	1	1	1	-1	0	1	1	0	1	1	1	200	100	66.666664	1	1	266.66666	0	0	0	0	0	0	0.0	0	0	0.0	0.0	0.0	0	0	0	0	0	0	0	0	0.0	0	0	0	0	0	-1.0	0	0	0	0	0
1	3	24	11	113	18	3	2	1	1	3	1	4	0	0	60	0	0	0	207	156.6	-1	1	1	-1	0	1	1	0	1	1	1	200	100	66.666664	1	1	266.66666	0	0	0	0	0	0	0.0	0	0	0.0	0.0	0.0	0	0	0	0	0	0	0	0	0.0	0	0	0	0	0	-1.0	0	0	0	1	0
1	4	1	11	112	18	3	2	1	0	2	1	3	0	0	33	0	0	0	100	46.666668	1	1	1	-1	0	0	1	0	2	1	1	100	200	33.333332	1	1	133.33333	0	0	0	0	0	0	0.0	0	0	0.0	0.0	0.0	0	0	0	0	0	0	0	0	0.0	0	0	0	0	0	-1.0	0	0	0	0	2
1	4	2	13	132	18	1	2	3	0	2	0	0	67	0	0	0	0	0	200	93.333336	0	-1	0	0	0	0	0	0	4	1	3	200	100	66.666664	1	1	266.66666	0	0	0	0	0	0	0.0	0	0	0.0	0.0	0.0	0	0	0	0	0	0	0	0	0.0	0	0	0	0	0	-1.0	0	0	0	1	2
1	4	3	12	122	18	3	2	2	0	2	0	0	0	0	0	0	0	0	0	0.0	0	0	0	0	0	0	-1	1	1	0	1	100	200	33.333332	0	1	100.0	0	0	0	0	0	0	0.0	100	151	0.0	0.0	19.047619	0	1	0	0	0	0	0	0	0.0	0	1	0	0	0	0.0	0	0	0	0	0
1	4	4	12	124	18	3	2	2	0	4	0	0	0	0	0	0	0	0	0	0.0	0	0	0	0	0	0	-1	1	1	0	1	100	200	33.333332	0	1	100.0	0	0	0	0	0	0	0.0	100	151	0.0	0.0	19.047619	0	1	0	0	0	0	0	0	0.0	0	1	0	0	0	0.0	0	0	0	0	0
1	4	5	10	104	18	1	2	0	0	4	1	3	0	0	0	0	1	0	250	116.666664	1	1	1	0	1	-1	0	1	1	0	3	200	100	66.666664	1	0	251.0	0	0	0	0	0	0	6.0	151	100	0.0	0.0	80.95238	1	0	0	0	0	0	0	0	100.0	1	0	0	0	0	1.0	0	0	0	0	1
1	4	6	12	123	18	3	2	2	0	3	0	0	0	0	0	0	0	0	0	0.0	0	0	0	0	0	0	-1	1	1	0	1	100	200	33.333332	0	1	100.0	0	0	0	0	0	0	0.0	100	151	0.0	0.0	19.047619	0	1	0	0	0	0	0	0	0.0	0	1	0	0	0	0.0	0	0	0	1	2
1	4	7	10	101	18	1	2	0	0	1	1	3	0	0	0	0	1	0	250	116.666664	1	1	1	0	1	-1	0	1	1	0	3	200	100	66.666664	1	0	251.0	0	0	0	0	0	0	6.0	151	100	0.0	0.0	80.95238	1	0	0	0	0	0	0	0	100.0	1	0	0	0	0	1.0	0	0	0	1	0
1	4	8	10	105	18	1	2	0	1	5	1	3	0	0	0	0	1	0	250	117.666664	-1	1	1	0	1	-1	0	1	1	0	3	200	100	66.666664	1	0	251.0	10	10	10	0	0	0	6.0	151	100	-1.0	5.0	80.95238	1	0	4	5	10	0	0	0	100.0	1	0	0	0	0	1.0	0	0	0	0	0
1	4	9	11	116	18	3	2	1	0	6	1	3	0	0	33	0	0	0	100	46.666668	1	1	1	-1	0	0	1	0	2	1	1	100	200	33.333332	1	1	133.33333	0	0	0	0	0	0	0.0	0	0	0.0	0.0	0.0	0	0	0	0	0	0	0	0	0.0	0	0	0	0	0	-1.0	0	0	0	0	2
1	4	10	13	131	18	1	2	3	1	1	0	0	67	0	0	0	0	0	200	0.0	-1	-1	0	0	0	0	0	0	4	1	3	200	100	66.666664	1	1	266.66666	0	0	0	0	0	0	0.0	0	0	0.0	0.0	0.0	0	0	0	0	0	0	0	0	0.0	0	0	0	0	0	-1.0	0	0	0	0	2
1	4	11	10	103	18	1	2	0	0	3	1	3	0	0	0	0	1	0	250	116.666664	0	1	1	0	1	-1	0	1	1	0	3	200	100	66.666664	1	0	251.0	0	0	0	0	0	0	6.0	151	100	0.0	0.0	80.95238	1	0	0	0	0	0	0	0	100.0	1	0	0	0	0	1.0	0	0	0	1	0
1	4	12	10	106	18	1	2	0	0	6	1	3	0	0	0	0	1	0	250	116.666664	0	1	1	0	1	-1	0	1	1	0	3	200	100	66.666664	1	0	251.0	0	0	0	0	0	0	6.0	151	100	0.0	0.0	80.95238	1	0	0	0	0	0	0	0	100.0	1	0	0	0	0	1.0	0	0	0	1	0
1	4	13	10	102	18	1	2	0	0	2	1	3	0	0	0	0	1	0	250	116.666664	1	1	1	0	1	-1	0	1	1	0	3	200	100	66.666664	1	0	251.0	0	0	0	0	0	0	6.0	151	100	0.0	0.0	80.95238	1	0	0	0	0	0	0	0	100.0	1	0	0	0	0	1.0	0	0	0	0	0
1	4	14	13	136	18	1	2	3	0	6	0	0	67	0	0	0	0	0	200	93.333336	0	-1	0	0	0	0	0	0	4	1	3	200	100	66.666664	1	1	266.66666	0	0	0	0	0	0	0.0	0	0	0.0	0.0	0.0	0	0	0	0	0	0	0	0	0.0	0	0	0	0	0	-1.0	0	0	0	0	0
1	4	15	13	134	18	1	2	3	0	4	0	0	67	0	0	0	0	0	200	93.333336	0	-1	0	0	0	0	0	0	4	1	3	200	100	66.666664	1	1	266.66666	0	0	0	0	0	0	0.0	0	0	0.0	0.0	0.0	0	0	0	0	0	0	0	0	0.0	0	0	0	0	0	-1.0	0	0	0	0	2
1	4	16	12	125	18	3	2	2	0	5	0	0	0	0	0	0	0	0	0	0.0	0	0	0	0	0	0	-1	1	1	0	1	100	200	33.333332	0	1	100.0	0	0	0	0	0	0	0.0	100	151	0.0	0.0	19.047619	0	1	0	0	0	0	0	0	0.0	0	1	0	0	0	0.0	0	0	0	1	0
1	4	17	11	114	18	3	2	1	0	4	1	3	0	0	33	0	0	0	100	46.666668	0	1	1	-1	0	0	1	0	2	1	1	100	200	33.333332	1	1	133.33333	0	0	0	0	0	0	0.0	0	0	0.0	0.0	0.0	0	0	0	0	0	0	0	0	0.0	0	0	0	0	0	-1.0	0	0	0	1	1
1	4	18	13	135	18	1	2	3	0	5	0	0	67	0	0	0	0	0	200	93.333336	0	-1	0	0	0	0	0	0	4	1	3	200	100	66.666664	1	1	266.66666	0	0	0	0	0	0	0.0	0	0	0.0	0.0	0.0	0	0	0	0	0	0	0	0	0.0	0	0	0	0	0	-1.0	0	0	0	1	0
1	4	19	13	133	18	1	2	3	0	3	0	0	67	0	0	0	0	0	200	93.333336	0	-1	0	0	0	0	0	0	4	1	3	200	100	66.666664	1	1	266.66666	0	0	0	0	0	0	0.0	0	0	0.0	0.0	0.0	0	0	0	0	0	0	0	0	0.0	0	0	0	0	0	-1.0	0	0	0	1	2
1	4	20	12	121	18	3	2	2	0	1	0	0	0	0	0	0	0	0	0	0.0	0	0	0	0	0	0	-1	1	1	0	1	100	200	33.333332	0	1	100.0	0	0	0	0	0	0	0.0	100	151	0.0	0.0	19.047619	0	1	0	0	0	0	0	0	0.0	0	1	0	0	0	0.0	0	0	0	0	0
1	4	21	12	126	18	3	2	2	1	6	0	0	0	0	0	0	0	0	0	0.0	-1	0	0	0	0	0	-1	1	1	0	1	100	200	33.333332	0	1	100.0	0	0	0	10	10	10	0.0	100	151	5.0	-1.0	19.047619	0	1	0	0	0	4	5	10	0.0	0	1	0	0	0	0.0	0	0	0	1	0
1	4	22	11	111	18	3	2	1	0	1	1	3	0	0	33	0	0	0	100	46.666668	1	1	1	-1	0	0	1	0	2	1	1	100	200	33.333332	1	1	133.33333	0	0	0	0	0	0	0.0	0	0	0.0	0.0	0.0	0	0	0	0	0	0	0	0	0.0	0	0	0	0	0	-1.0	0	0	0	1	0
1	4	23	11	115	18	3	2	1	0	5	1	3	0	0	33	0	0	0	100	46.666668	0	1	1	-1	0	0	1	0	2	1	1	100	200	33.333332	1	1	133.33333	0	0	0	0	0	0	0.0	0	0	0.0	0.0	0.0	0	0	0	0	0	0	0	0	0.0	0	0	0	0	0	-1.0	0	0	0	0	0
1	4	24	11	113	18	3	2	1	1	3	1	3	0	0	33	0	0	0	100	79.666664	-1	1	1	-1	0	0	1	0	2	1	1	100	200	33.333332	1	1	133.33333	0	0	0	0	0	0	0.0	0	0	0.0	0.0	0.0	0	0	0	0	0	0	0	0	0.0	0	0	0	0	0	-1.0	0	0	0	1	0
1	5	1	11	112	18	3	2	1	0	2	1	4	0	0	60	0	0	0	207	96.6	1	1	1	-1	0	1	1	0	3	1	1	200	100	66.666664	1	1	266.66666	0	0	0	0	0	0	0.0	0	0	0.0	0.0	0.0	0	0	0	0	0	0	0	0	0.0	0	0	0	0	0	-1.0	0	0	0	0	2
1	5	2	13	132	18	1	2	3	0	2	0	0	0	0	0	0	0	0	0	0.0	0	0	0	0	-1	0	0	0	1	1	3	100	200	33.333332	1	1	133.33333	0	0	0	0	0	0	0.0	0	0	0.0	0.0	0.0	0	0	0	0	0	0	0	0	0.0	0	0	0	0	0	-1.0	0	0	0	1	2
1	5	3	12	122	18	3	2	2	0	2	0	0	0	0	0	0	0	0	0	0.0	0	0	0	-1	0	0	0	0	1	1	1	200	100	66.666664	1	1	266.66666	0	0	0	0	0	0	0.0	0	0	0.0	0.0	0.0	0	0	0	0	0	0	0	0	0.0	0	0	0	0	0	-1.0	0	0	0	0	0
1	5	4	12	124	18	3	2	2	0	4	0	0	0	0	0	0	0	0	0	0.0	0	0	0	-1	0	0	0	0	1	1	1	200	100	66.666664	1	1	266.66666	0	0	0	0	0	0	0.0	0	0	0.0	0.0	0.0	0	0	0	0	0	0	0	0	0.0	0	0	0	0	0	-1.0	0	0	0	0	0
1	5	5	10	104	18	1	2	0	0	4	1	2	0	0	0	0	1	0	132	61.6	1	0	1	0	1	-1	0	0	2	1	3	100	200	33.333332	1	1	133.33333	0	0	0	0	0	0	0.0	0	0	0.0	0.0	0.0	0	0	0	0	0	0	0	0	0.0	0	0	0	0	0	-1.0	0	0	0	0	1
1	5	6	12	123	18	3	2	2	1	3	0	0	0	0	0	0	0	0	0	0.0	-1	0	0	-1	0	0	0	0	1	1	1	200	100	66.666664	1	1	266.66666	0	0	0	0	0	0	0.0	0	0	0.0	0.0	0.0	0	0	0	0	0	0	0	0	0.0	0	0	0	0	0	-1.0	0	0	0	1	2
1	5	7	10	101	18	1	2	0	0	1	1	2	0	0	0	0	1	0	132	61.6	0	0	1	0	1	-1	0	0	2	1	3	100	200	33.333332	1	1	133.33333	0	0	0	0	0	0	0.0	0	0	0.0	0.0	0.0	0	0	0	0	0	0	0	0	0.0	0	0	0	0	0	-1.0	0	0	0	1	0
1	5	8	10	105	18	1	2	0	1	5	1	2	0	0	0	0	1	0	132	62.6	-1	0	1	0	1	-1	0	0	2	1	3	100	200	33.333332	1	1	133.33333	0	0	0	0	0	0	0.0	0	0	0.0	0.0	0.0	0	0	0	0	0	0	0	0	0.0	0	0	0	0	0	-1.0	0	0	0	0	0
1	5	9	11	116	18	3	2	1	0	6	1	4	0	0	60	0	0	0	207	96.6	1	1	1	-1	0	1	1	0	3	1	1	200	100	66.666664	1	1	266.66666	0	0	0	0	0	0	0.0	0	0	0.0	0.0	0.0	0	0	0	0	0	0	0	0	0.0	0	0	0	0	0	-1.0	0	0	0	0	2
1	5	10	13	131	18	1	2	3	0	1	0	0	0	0	0	0	0	0	0	0.0	0	0	0	0	-1	0	0	0	1	1	3	100	200	33.333332	1	1	133.33333	0	0	0	0	0	0	0.0	0	0	0.0	0.0	0.0	0	0	0	0	0	0	0	0	0.0	0	0	0	0	0	-1.0	0	0	0	0	2
1	5	11	10	103	18	1	2	0	0	3	1	2	0	0	0	0	1	0	132	61.6	0	0	1	0	1	-1	0	0	2	1	3	100	200	33.333332	1	1	133.33333	0	0	0	0	0	0	0.0	0	0	0.0	0.0	0.0	0	0	0	0	0	0	0	0	0.0	0	0	0	0	0	-1.0	0	0	0	1	0
1	5	12	10	106	18	1	2	0	0	6	1	2	0	0	0	0	1	0	132	61.6	0	0	1	0	1	-1	0	0	2	1	3	100	200	33.333332	1	1	133.33333	0	0	0	0	0	0	0.0	0	0	0.0	0.0	0.0	0	0	0	0	0	0	0	0	0.0	0	0	0	0	0	-1.0	0	0	0	1	0
1	5	13	10	102	18	1	2	0	0	2	1	2	0	0	0	0	1	0	132	61.6	1	0	1	0	1	-1	0	0	2	1	3	100	200	33.333332	1	1	133.33333	0	0	0	0	0	0	0.0	0	0	0.0	0.0	0.0	0	0	0	0	0	0	0	0	0.0	0	0	0	0	0	-1.0	0	0	0	0	0
1	5	14	13	136	18	1	2	3	0	6	0	0	0	0	0	0	0	0	0	0.0	0	0	0	0	-1	0	0	0	1	1	3	100	200	33.333332	1	1	133.33333	0	0	0	0	0	0	0.0	0	0	0.0	0.0	0.0	0	0	0	0	0	0	0	0	0.0	0	0	0	0	0	-1.0	0	0	0	0	0
1	5	15	13	134	18	1	2	3	1	4	0	0	0	0	0	0	0	0	0	0.0	-1	0	0	0	-1	0	0	0	1	1	3	100	200	33.333332	1	1	133.33333	0	0	0	0	0	0	0.0	0	0	0.0	0.0	0.0	0	0	0	0	0	0	0	0	0.0	0	0	0	0	0	-1.0	0	0	0	0	2
1	5	16	12	125	18	3	2	2	0	5	0	0	0	0	0	0	0	0	0	0.0	0	0	0	-1	0	0	0	0	1	1	1	200	100	66.666664	1	1	266.66666	0	0	0	0	0	0	0.0	0	0	0.0	0.0	0.0	0	0	0	0	0	0	0	0	0.0	0	0	0	0	0	-1.0	0	0	0	1	0
1	5	17	11	114	18	3	2	1	0	4	1	4	0	0	60	0	0	0	207	96.6	0	1	1	-1	0	1	1	0	3	1	1	200	100	66.666664	1	1	266.66666	0	0	0	0	0	0	0.0	0	0	0.0	0.0	0.0	0	0	0	0	0	0	0	0	0.0	0	0	0	0	0	-1.0	0	0	0	1	1
1	5	18	13	135	18	1	2	3	0	5	0	0	0	0	0	0	0	0	0	0.0	0	0	0	0	-1	0	0	0	1	1	3	100	200	33.333332	1	1	133.33333	0	0	0	0	0	0	0.0	0	0	0.0	0.0	0.0	0	0	0	0	0	0	0	0	0.0	0	0	0	0	0	-1.0	0	0	0	1	0
1	5	19	13	133	18	1	2	3	0	3	0	0	0	0	0	0	0	0	0	0.0	0	0	0	0	-1	0	0	0	1	1	3	100	200	33.333332	1	1	133.33333	0	0	0	0	0	0	0.0	0	0	0.0	0.0	0.0	0	0	0	0	0	0	0	0	0.0	0	0	0	0	0	-1.0	0	0	0	1	2
1	5	20	12	121	18	3	2	2	0	1	0	0	0	0	0	0	0	0	0	0.0	0	0	0	-1	0	0	0	0	1	1	1	200	100	66.666664	1	1	266.66666	0	0	0	0	0	0	0.0	0	0	0.0	0.0	0.0	0	0	0	0	0	0	0	0	0.0	0	0	0	0	0	-1.0	0	0	0	0	0
1	5	21	12	126	18	3	2	2	0	6	0	0	0	0	0	0	0	0	0	0.0	0	0	0	-1	0	0	0	0	1	1	1	200	100	66.666664	1	1	266.66666	0	0	0	0	0	0	0.0	0	0	0.0	0.0	0.0	0	0	0	0	0	0	0	0	0.0	0	0	0	0	0	-1.0	0	0	0	1	0
1	5	22	11	111	18	3	2	1	0	1	1	4	0	0	60	0	0	0	207	96.6	1	1	1	-1	0	1	1	0	3	1	1	200	100	66.666664	1	1	266.66666	0	0	0	0	0	0	0.0	0	0	0.0	0.0	0.0	0	0	0	0	0	0	0	0	0.0	0	0	0	0	0	-1.0	0	0	0	1	0
1	5	23	11	115	18	3	2	1	0	5	1	4	0	0	60	0	0	0	207	96.6	1	1	1	-1	0	1	1	0	3	1	1	200	100	66.666664	1	1	266.66666	0	0	0	0	0	0	0.0	0	0	0.0	0.0	0.0	0	0	0	0	0	0	0	0	0.0	0	0	0	0	0	-1.0	0	0	0	0	0
1	5	24	11	113	18	3	2	1	1	3	1	4	0	0	60	0	0	0	207	156.6	-1	1	1	-1	0	1	1	0	3	1	1	200	100	66.666664	1	1	266.66666	0	0	0	0	0	0	0.0	0	0	0.0	0.0	0.0	0	0	0	0	0	0	0	0	0.0	0	0	0	0	0	-1.0	0	0	0	1	0
1	6	1	11	112	18	3	2	1	0	2	1	4	0	0	0	0	0	0	133	62.066666	1	1	1	-1	0	1	1	0	4	1	3	100	200	33.333332	1	1	133.33333	0	0	0	0	0	0	0.0	0	0	0.0	0.0	0.0	0	0	0	0	0	0	0	0	0.0	0	0	0	0	0	-1.0	0	0	0	0	2
1	6	2	13	132	18	1	2	3	0	2	1	2	50	0	0	0	0	0	150	70.0	0	-1	0	0	0	1	1	0	1	1	1	150	150	50.0	1	1	200.0	0	0	0	0	0	0	0.0	0	0	0.0	0.0	0.0	0	0	0	0	0	0	0	0	0.0	0	0	0	0	0	-1.0	0	0	0	1	2
1	6	3	12	122	18	3	2	2	0	2	0	0	0	0	0	0	0	0	0	0.0	0	-1	0	0	0	0	0	0	1	1	3	200	100	66.666664	1	1	266.66666	0	0	0	0	0	0	0.0	0	0	0.0	0.0	0.0	0	0	0	0	0	0	0	0	0.0	0	0	0	0	0	-1.0	0	0	0	0	0
1	6	4	12	124	18	3	2	2	0	4	0	0	0	0	0	0	0	0	0	0.0	0	-1	0	0	0	0	0	0	1	1	3	200	100	66.666664	1	1	266.66666	0	0	0	0	0	0	0.0	0	0	0.0	0.0	0.0	0	0	0	0	0	0	0	0	0.0	0	0	0	0	0	-1.0	0	0	0	0	0
1	6	5	10	104	18	1	2	0	0	4	1	2	0	0	0	0	1	0	199	92.86667	0	1	1	0	0	-1	0	0	3	1	1	150	150	50.0	1	1	200.0	0	0	0	0	0	0	0.0	0	0	0.0	0.0	0.0	0	0	0	0	0	0	0	0	0.0	0	0	0	0	0	-1.0	0	0	0	0	1
1	6	6	12	123	18	3	2	2	0	3	0	0	0	0	0	0	0	0	0	0.0	0	-1	0	0	0	0	0	0	1	1	3	200	100	66.666664	1	1	266.66666	0	0	0	0	0	0	0.0	0	0	0.0	0.0	0.0	0	0	0	0	0	0	0	0	0.0	0	0	0	0	0	-1.0	0	0	0	1	2
1	6	7	10	101	18	1	2	0	0	1	1	2	0	0	0	0	1	0	199	92.86667	1	1	1	0	0	-1	0	0	3	1	1	150	150	50.0	1	1	200.0	0	0	0	0	0	0	0.0	0	0	0.0	0.0	0.0	0	0	0	0	0	0	0	0	0.0	0	0	0	0	0	-1.0	0	0	0	1	0
1	6	8	10	105	18	1	2	0	1	5	1	2	0	0	0	0	1	0	199	93.86667	-1	1	1	0	0	-1	0	0	3	1	1	150	150	50.0	1	1	200.0	0	0	0	0	0	0	0.0	0	0	0.0	0.0	0.0	0	0	0	0	0	0	0	0	0.0	0	0	0	0	0	-1.0	0	0	0	0	0
1	6	9	11	116	18	3	2	1	0	6	1	4	0	0	0	0	0	0	133	62.066666	1	1	1	-1	0	1	1	0	4	1	3	100	200	33.333332	1	1	133.33333	0	0	0	0	0	0	0.0	0	0	0.0	0.0	0.0	0	0	0	0	0	0	0	0	0.0	0	0	0	0	0	-1.0	0	0	0	0	2
1	6	10	13	131	18	1	2	3	1	1	1	2	50	0	0	0	0	0	150	120.0	-1	-1	0	0	0	1	1	0	1	1	1	150	150	50.0	1	1	200.0	0	0	0	0	0	0	0.0	0	0	0.0	0.0	0.0	0	0	0	0	0	0	0	0	0.0	0	0	0	0	0	-1.0	0	0	0	0	2
1	6	11	10	103	18	1	2	0	0	3	1	2	0	0	0	0	1	0	199	92.86667	0	1	1	0	0	-1	0	0	3	1	1	150	150	50.0	1	1	200.0	0	0	0	0	0	0	0.0	0	0	0.0	0.0	0.0	0	0	0	0	0	0	0	0	0.0	0	0	0	0	0	-1.0	0	0	0	1	0
1	6	12	10	106	18	1	2	0	0	6	1	2	0	0	0	0	1	0	199	92.86667	0	1	1	0	0	-1	0	0	3	1	1	150	150	50.0	1	1	200.0	0	0	0	0	0	0	0.0	0	0	0.0	0.0	0.0	0	0	0	0	0	0	0	0	0.0	0	0	0	0	0	-1.0	0	0	0	1	0
1	6	13	10	102	18	1	2	0	0	2	1	2	0	0	0	0	1	0	199	92.86667	1	1	1	0	0	-1	0	0	3	1	1	150	150	50.0	1	1	200.0	0	0	0	0	0	0	0.0	0	0	0.0	0.0	0.0	0	0	0	0	0	0	0	0	0.0	0	0	0	0	0	-1.0	0	0	0	0	0
1	6	14	13	136	18	1	2	3	0	6	1	2	50	0	0	0	0	0	150	70.0	1	-1	0	0	0	1	1	0	1	1	1	150	150	50.0	1	1	200.0	0	0	0	0	0	0	0.0	0	0	0.0	0.0	0.0	0	0	0	0	0	0	0	0	0.0	0	0	0	0	0	-1.0	0	0	0	0	0
1	6	15	13	134	18	1	2	3	0	4	1	2	50	0	0	0	0	0	150	70.0	0	-1	0	0	0	1	1	0	1	1	1	150	150	50.0	1	1	200.0	0	0	0	0	0	0	0.0	0	0	0.0	0.0	0.0	0	0	0	0	0	0	0	0	0.0	0	0	0	0	0	-1.0	0	0	0	0	2
1	6	16	12	125	18	3	2	2	0	5	0	0	0	0	0	0	0	0	0	0.0	0	-1	0	0	0	0	0	0	1	1	3	200	100	66.666664	1	1	266.66666	0	0	0	0	0	0	0.0	0	0	0.0	0.0	0.0	0	0	0	0	0	0	0	0	0.0	0	0	0	0	0	-1.0	0	0	0	1	0
1	6	17	11	114	18	3	2	1	0	4	1	4	0	0	0	0	0	0	133	62.066666	0	1	1	-1	0	1	1	0	4	1	3	100	200	33.333332	1	1	133.33333	0	0	0	0	0	0	0.0	0	0	0.0	0.0	0.0	0	0	0	0	0	0	0	0	0.0	0	0	0	0	0	-1.0	0	0	0	1	1
1	6	18	13	135	18	1	2	3	0	5	1	2	50	0	0	0	0	0	150	70.0	1	-1	0	0	0	1	1	0	1	1	1	150	150	50.0	1	1	200.0	0	0	0	0	0	0	0.0	0	0	0.0	0.0	0.0	0	0	0	0	0	0	0	0	0.0	0	0	0	0	0	-1.0	0	0	0	1	0
1	6	19	13	133	18	1	2	3	0	3	1	2	50	0	0	0	0	0	150	70.0	0	-1	0	0	0	1	1	0	1	1	1	150	150	50.0	1	1	200.0	0	0	0	0	0	0	0.0	0	0	0.0	0.0	0.0	0	0	0	0	0	0	0	0	0.0	0	0	0	0	0	-1.0	0	0	0	1	2
1	6	20	12	121	18	3	2	2	1	1	0	0	0	0	0	0	0	0	0	0.0	-1	-1	0	0	0	0	0	0	1	1	3	200	100	66.666664	1	1	266.66666	0	0	0	0	0	0	0.0	0	0	0.0	0.0	0.0	0	0	0	0	0	0	0	0	0.0	0	0	0	0	0	-1.0	0	0	0	0	0
1	6	21	12	126	18	3	2	2	0	6	0	0	0	0	0	0	0	0	0	0.0	0	-1	0	0	0	0	0	0	1	1	3	200	100	66.666664	1	1	266.66666	0	0	0	0	0	0	0.0	0	0	0.0	0.0	0.0	0	0	0	0	0	0	0	0	0.0	0	0	0	0	0	-1.0	0	0	0	1	0
1	6	22	11	111	18	3	2	1	0	1	1	4	0	0	0	0	0	0	133	62.066666	1	1	1	-1	0	1	1	0	4	1	3	100	200	33.333332	1	1	133.33333	0	0	0	0	0	0	0.0	0	0	0.0	0.0	0.0	0	0	0	0	0	0	0	0	0.0	0	0	0	0	0	-1.0	0	0	0	1	0
1	6	23	11	115	18	3	2	1	0	5	1	4	0	0	0	0	0	0	133	62.066666	1	1	1	-1	0	1	1	0	4	1	3	100	200	33.333332	1	1	133.33333	0	0	0	0	0	0	0.0	0	0	0.0	0.0	0.0	0	0	0	0	0	0	0	0	0.0	0	0	0	0	0	-1.0	0	0	0	0	0
1	6	24	11	113	18	3	2	1	1	3	1	4	0	0	0	0	0	0	133	62.066666	-1	1	1	-1	0	1	1	0	4	1	3	100	200	33.333332	1	1	133.33333	0	0	0	0	0	0	0.0	0	0	0.0	0.0	0.0	0	0	0	0	0	0	0	0	0.0	0	0	0	0	0	-1.0	0	0	0	1	0
1	7	1	11	112	18	3	2	1	0	2	1	3	0	0	58	0	0	0	209	97.53333	1	0	1	-1	1	1	0	0	5	1	3	200	100	66.666664	1	1	266.66666	0	0	0	0	0	0	0.0	0	0	0.0	0.0	0.0	0	0	0	0	0	0	0	0	0.0	0	0	0	0	0	-1.0	0	0	0	0	2
1	7	2	13	132	18	1	2	3	0	2	0	0	35	0	0	0	0	0	70	32.666668	0	-1	0	0	0	0	0	0	2	1	1	100	200	33.333332	0	1	105.1046	0	0	0	0	0	0	1.0	80	179	0.0	0.0	25.104603	1	1	0	0	0	0	0	0	0.0	0	0	0	0	0	-1.0	0	0	0	1	2
1	7	3	12	122	18	3	2	2	0	2	0	0	0	0	20	70	20	20	3	1.4	0	0	0	0	-1	0	0	0	1	1	3	100	200	33.333332	1	1	133.33333	0	0	0	0	0	0	0.0	0	0	0.0	0.0	0.0	0	0	0	0	0	0	0	0	0.0	0	0	0	0	0	-1.0	0	0	0	0	0
1	7	4	12	124	18	3	2	2	1	4	0	0	0	0	20	70	20	20	3	0.0	-1	0	0	0	-1	0	0	0	1	1	3	100	200	33.333332	1	1	133.33333	0	0	0	0	0	0	0.0	0	0	0.0	0.0	0.0	0	0	0	0	0	0	0	0	0.0	0	0	0	0	0	-1.0	0	0	0	0	0
1	7	5	10	104	18	1	2	0	0	4	1	3	0	0	0	0	4	0	250	116.666664	0	1	1	0	0	-1	1	0	4	1	1	200	100	66.666664	1	0	253.8954	0	0	0	0	0	0	2.0	179	80	0.0	0.0	74.8954	1	1	0	0	0	0	0	0	0.0	0	0	0	0	0	-1.0	0	0	0	0	1
1	7	6	12	123	18	3	2	2	0	3	0	0	0	0	20	70	20	20	3	21.4	0	0	0	0	-1	0	0	0	1	1	3	100	200	33.333332	1	1	133.33333	0	0	0	0	0	0	0.0	0	0	0.0	0.0	0.0	0	0	0	0	0	0	0	0	0.0	0	0	0	0	0	-1.0	0	0	0	1	2
1	7	7	10	101	18	1	2	0	0	1	1	3	0	0	0	0	4	0	250	116.666664	1	1	1	0	0	-1	1	0	4	1	1	200	100	66.666664	1	0	253.8954	0	0	0	0	0	0	2.0	179	80	0.0	0.0	74.8954	1	1	0	0	0	0	0	0	0.0	0	0	0	0	0	-1.0	0	0	0	1	0
1	7	8	10	105	18	1	2	0	1	5	1	3	0	0	0	0	4	0	250	120.666664	-1	1	1	0	0	-1	1	0	4	1	1	200	100	66.666664	1	0	253.8954	5	8	8	20	0	0	2.0	179	80	3.0	4.0	74.8954	1	1	0	0	0	0	0	0	0.0	0	0	0	0	0	-1.0	0	0	0	0	0
1	7	9	11	116	18	3	2	1	0	6	1	3	0	0	58	0	0	0	209	97.53333	0	0	1	-1	1	1	0	0	5	1	3	200	100	66.666664	1	1	266.66666	0	0	0	0	0	0	0.0	0	0	0.0	0.0	0.0	0	0	0	0	0	0	0	0	0.0	0	0	0	0	0	-1.0	0	0	0	0	2
1	7	10	13	131	18	1	2	3	1	1	0	0	35	0	0	0	0	0	70	0.0	-1	-1	0	0	0	0	0	0	2	1	1	100	200	33.333332	0	1	105.1046	20	0	0	5	8	8	1.0	80	179	4.0	3.0	25.104603	1	1	0	0	0	0	0	0	0.0	0	0	0	0	0	-1.0	0	0	0	0	2
1	7	11	10	103	18	1	2	0	0	3	1	3	0	0	0	0	4	0	250	116.666664	0	1	1	0	0	-1	1	0	4	1	1	200	100	66.666664	1	0	253.8954	0	0	0	0	0	0	2.0	179	80	0.0	0.0	74.8954	1	1	0	0	0	0	0	0	0.0	0	0	0	0	0	-1.0	0	0	0	1	0
1	7	12	10	106	18	1	2	0	0	6	1	3	0	0	0	0	4	0	250	116.666664	1	1	1	0	0	-1	1	0	4	1	1	200	100	66.666664	1	0	253.8954	0	0	0	0	0	0	2.0	179	80	0.0	0.0	74.8954	1	1	0	0	0	0	0	0	0.0	0	0	0	0	0	-1.0	0	0	0	1	0
1	7	13	10	102	18	1	2	0	0	2	1	3	0	0	0	0	4	0	250	116.666664	1	1	1	0	0	-1	1	0	4	1	1	200	100	66.666664	1	0	253.8954	0	0	0	0	0	0	2.0	179	80	0.0	0.0	74.8954	1	1	0	0	0	0	0	0	0.0	0	0	0	0	0	-1.0	0	0	0	0	0
1	7	14	13	136	18	1	2	3	0	6	0	0	35	0	0	0	0	0	70	32.666668	0	-1	0	0	0	0	0	0	2	1	1	100	200	33.333332	0	1	105.1046	0	0	0	0	0	0	1.0	80	179	0.0	0.0	25.104603	1	1	0	0	0	0	0	0	0.0	0	0	0	0	0	-1.0	0	0	0	0	0
1	7	15	13	134	18	1	2	3	0	4	0	0	35	0	0	0	0	0	70	32.666668	0	-1	0	0	0	0	0	0	2	1	1	100	200	33.333332	0	1	105.1046	0	0	0	0	0	0	1.0	80	179	0.0	0.0	25.104603	1	1	0	0	0	0	0	0	0.0	0	0	0	0	0	-1.0	0	0	0	0	2
1	7	16	12	125	18	3	2	2	0	5	0	0	0	0	20	70	20	20	3	21.4	0	0	0	0	-1	0	0	0	1	1	3	100	200	33.333332	1	1	133.33333	0	0	0	0	0	0	0.0	0	0	0.0	0.0	0.0	0	0	0	0	0	0	0	0	0.0	0	0	0	0	0	-1.0	0	0	0	1	0
1	7	17	11	114	18	3	2	1	0	4	1	3	0	0	58	0	0	0	209	97.53333	1	0	1	-1	1	1	0	0	5	1	3	200	100	66.666664	1	1	266.66666	0	0	0	0	0	0	0.0	0	0	0.0	0.0	0.0	0	0	0	0	0	0	0	0	0.0	0	0	0	0	0	-1.0	0	0	0	1	1
1	7	18	13	135	18	1	2	3	0	5	0	0	35	0	0	0	0	0	70	32.666668	0	-1	0	0	0	0	0	0	2	1	1	100	200	33.333332	0	1	105.1046	0	0	0	0	0	0	1.0	80	179	0.0	0.0	25.104603	1	1	0	0	0	0	0	0	0.0	0	0	0	0	0	-1.0	0	0	0	1	0
1	7	19	13	133	18	1	2	3	0	3	0	0	35	0	0	0	0	0	70	32.666668	0	-1	0	0	0	0	0	0	2	1	1	100	200	33.333332	0	1	105.1046	0	0	0	0	0	0	1.0	80	179	0.0	0.0	25.104603	1	1	0	0	0	0	0	0	0.0	0	0	0	0	0	-1.0	0	0	0	1	2
1	7	20	12	121	18	3	2	2	0	1	0	0	0	0	20	70	20	20	3	1.4	0	0	0	0	-1	0	0	0	1	1	3	100	200	33.333332	1	1	133.33333	0	0	0	0	0	0	0.0	0	0	0.0	0.0	0.0	0	0	0	0	0	0	0	0	0.0	0	0	0	0	0	-1.0	0	0	0	0	0
1	7	21	12	126	18	3	2	2	0	6	0	0	0	0	20	70	20	20	3	21.4	0	0	0	0	-1	0	0	0	1	1	3	100	200	33.333332	1	1	133.33333	0	0	0	0	0	0	0.0	0	0	0.0	0.0	0.0	0	0	0	0	0	0	0	0	0.0	0	0	0	0	0	-1.0	0	0	0	1	0
1	7	22	11	111	18	3	2	1	0	1	1	3	0	0	58	0	0	0	209	97.53333	0	0	1	-1	1	1	0	0	5	1	3	200	100	66.666664	1	1	266.66666	0	0	0	0	0	0	0.0	0	0	0.0	0.0	0.0	0	0	0	0	0	0	0	0	0.0	0	0	0	0	0	-1.0	0	0	0	1	0
1	7	23	11	115	18	3	2	1	0	5	1	3	0	0	58	0	0	0	209	97.53333	1	0	1	-1	1	1	0	0	5	1	3	200	100	66.666664	1	1	266.66666	0	0	0	0	0	0	0.0	0	0	0.0	0.0	0.0	0	0	0	0	0	0	0	0	0.0	0	0	0	0	0	-1.0	0	0	0	0	0
1	7	24	11	113	18	3	2	1	1	3	1	3	0	0	58	0	0	0	209	155.53334	-1	0	1	-1	1	1	0	0	5	1	3	200	100	66.666664	1	1	266.66666	0	0	0	0	0	0	0.0	0	0	0.0	0.0	0.0	0	0	0	0	0	0	0	0	0.0	0	0	0	0	0	-1.0	0	0	0	1	0
1	8	1	11	112	18	3	2	1	0	2	1	4	0	0	0	0	0	0	200	93.333336	1	1	1	-1	0	1	1	0	6	1	1	150	150	50.0	1	1	200.0	0	0	0	0	0	0	0.0	0	0	0.0	0.0	0.0	0	0	0	0	0	0	0	0	0.0	0	0	0	0	0	-1.0	0	0	0	0	2
1	8	2	13	132	18	1	2	3	0	2	1	1	0	0	0	0	0	0	0	0.0	0	0	0	0	-1	1	0	0	1	1	3	150	150	50.0	1	1	200.0	0	0	0	0	0	0	0.0	0	0	0.0	0.0	0.0	0	0	0	0	0	0	0	0	0.0	0	0	0	0	0	-1.0	0	0	0	1	2
1	8	3	12	122	18	3	2	2	1	2	1	4	0	0	0	0	0	0	150	70.0	-1	1	-1	0	1	1	1	0	1	1	1	150	150	50.0	1	1	200.0	0	0	0	0	0	0	0.0	0	0	0.0	0.0	0.0	0	0	0	0	0	0	0	0	0.0	0	0	0	0	0	-1.0	0	0	0	0	0
1	8	4	12	124	18	3	2	2	0	4	1	4	0	0	0	0	0	0	150	70.0	1	1	-1	0	1	1	1	0	1	1	1	150	150	50.0	1	1	200.0	0	0	0	0	0	0	0.0	0	0	0.0	0.0	0.0	0	0	0	0	0	0	0	0	0.0	0	0	0	0	0	-1.0	0	0	0	0	0
1	8	5	10	104	18	1	2	0	0	4	1	2	0	0	0	0	4	0	196	91.46667	0	1	1	0	0	-1	0	0	5	1	3	150	150	50.0	1	1	200.0	0	0	0	0	0	0	0.0	0	0	0.0	0.0	0.0	0	0	0	0	0	0	0	0	0.0	0	0	0	0	0	-1.0	0	0	0	0	1
1	8	6	12	123	18	3	2	2	0	3	1	4	0	0	0	0	0	0	150	70.0	0	1	-1	0	1	1	1	0	1	1	1	150	150	50.0	1	1	200.0	0	0	0	0	0	0	0.0	0	0	0.0	0.0	0.0	0	0	0	0	0	0	0	0	0.0	0	0	0	0	0	-1.0	0	0	0	1	2
1	8	7	10	101	18	1	2	0	0	1	1	2	0	0	0	0	4	0	196	91.46667	1	1	1	0	0	-1	0	0	5	1	3	150	150	50.0	1	1	200.0	0	0	0	0	0	0	0.0	0	0	0.0	0.0	0.0	0	0	0	0	0	0	0	0	0.0	0	0	0	0	0	-1.0	0	0	0	1	0
1	8	8	10	105	18	1	2	0	1	5	1	2	0	0	0	0	4	0	196	95.46667	-1	1	1	0	0	-1	0	0	5	1	3	150	150	50.0	1	1	200.0	0	0	0	0	0	0	0.0	0	0	0.0	0.0	0.0	0	0	0	0	0	0	0	0	0.0	0	0	0	0	0	-1.0	0	0	0	0	0
1	8	9	11	116	18	3	2	1	0	6	1	4	0	0	0	0	0	0	200	93.333336	1	1	1	-1	0	1	1	0	6	1	1	150	150	50.0	1	1	200.0	0	0	0	0	0	0	0.0	0	0	0.0	0.0	0.0	0	0	0	0	0	0	0	0	0.0	0	0	0	0	0	-1.0	0	0	0	0	2
1	8	10	13	131	18	1	2	3	0	1	1	1	0	0	0	0	0	0	0	0.0	0	0	0	0	-1	1	0	0	1	1	3	150	150	50.0	1	1	200.0	0	0	0	0	0	0	0.0	0	0	0.0	0.0	0.0	0	0	0	0	0	0	0	0	0.0	0	0	0	0	0	-1.0	0	0	0	0	2
1	8	11	10	103	18	1	2	0	0	3	1	2	0	0	0	0	4	0	196	91.46667	0	1	1	0	0	-1	0	0	5	1	3	150	150	50.0	1	1	200.0	0	0	0	0	0	0	0.0	0	0	0.0	0.0	0.0	0	0	0	0	0	0	0	0	0.0	0	0	0	0	0	-1.0	0	0	0	1	0
1	8	12	10	106	18	1	2	0	0	6	1	2	0	0	0	0	4	0	196	91.46667	0	1	1	0	0	-1	0	0	5	1	3	150	150	50.0	1	1	200.0	0	0	0	0	0	0	0.0	0	0	0.0	0.0	0.0	0	0	0	0	0	0	0	0	0.0	0	0	0	0	0	-1.0	0	0	0	1	0
1	8	13	10	102	18	1	2	0	0	2	1	2	0	0	0	0	4	0	196	91.46667	1	1	1	0	0	-1	0	0	5	1	3	150	150	50.0	1	1	200.0	0	0	0	0	0	0	0.0	0	0	0.0	0.0	0.0	0	0	0	0	0	0	0	0	0.0	0	0	0	0	0	-1.0	0	0	0	0	0
1	8	14	13	136	18	1	2	3	0	6	1	1	0	0	0	0	0	0	0	0.0	0	0	0	0	-1	1	0	0	1	1	3	150	150	50.0	1	1	200.0	0	0	0	0	0	0	0.0	0	0	0.0	0.0	0.0	0	0	0	0	0	0	0	0	0.0	0	0	0	0	0	-1.0	0	0	0	0	0
1	8	15	13	134	18	1	2	3	1	4	1	1	0	0	0	0	0	0	0	0.0	-1	0	0	0	-1	1	0	0	1	1	3	150	150	50.0	1	1	200.0	0	0	0	0	0	0	0.0	0	0	0.0	0.0	0.0	0	0	0	0	0	0	0	0	0.0	0	0	0	0	0	-1.0	0	0	0	0	2
1	8	16	12	125	18	3	2	2	0	5	1	4	0	0	0	0	0	0	150	70.0	1	1	-1	0	1	1	1	0	1	1	1	150	150	50.0	1	1	200.0	0	0	0	0	0	0	0.0	0	0	0.0	0.0	0.0	0	0	0	0	0	0	0	0	0.0	0	0	0	0	0	-1.0	0	0	0	1	0
1	8	17	11	114	18	3	2	1	0	4	1	4	0	0	0	0	0	0	200	93.333336	0	1	1	-1	0	1	1	0	6	1	1	150	150	50.0	1	1	200.0	0	0	0	0	0	0	0.0	0	0	0.0	0.0	0.0	0	0	0	0	0	0	0	0	0.0	0	0	0	0	0	-1.0	0	0	0	1	1
1	8	18	13	135	18	1	2	3	0	5	1	1	0	0	0	0	0	0	0	0.0	1	0	0	0	-1	1	0	0	1	1	3	150	150	50.0	1	1	200.0	0	0	0	0	0	0	0.0	0	0	0.0	0.0	0.0	0	0	0	0	0	0	0	0	0.0	0	0	0	0	0	-1.0	0	0	0	1	0
1	8	19	13	133	18	1	2	3	0	3	1	1	0	0	0	0	0	0	0	0.0	0	0	0	0	-1	1	0	0	1	1	3	150	150	50.0	1	1	200.0	0	0	0	0	0	0	0.0	0	0	0.0	0.0	0.0	0	0	0	0	0	0	0	0	0.0	0	0	0	0	0	-1.0	0	0	0	1	2
1	8	20	12	121	18	3	2	2	0	1	1	4	0	0	0	0	0	0	150	70.0	1	1	-1	0	1	1	1	0	1	1	1	150	150	50.0	1	1	200.0	0	0	0	0	0	0	0.0	0	0	0.0	0.0	0.0	0	0	0	0	0	0	0	0	0.0	0	0	0	0	0	-1.0	0	0	0	0	0
1	8	21	12	126	18	3	2	2	0	6	1	4	0	0	0	0	0	0	150	70.0	1	1	-1	0	1	1	1	0	1	1	1	150	150	50.0	1	1	200.0	0	0	0	0	0	0	0.0	0	0	0.0	0.0	0.0	0	0	0	0	0	0	0	0	0.0	0	0	0	0	0	-1.0	0	0	0	1	0
1	8	22	11	111	18	3	2	1	0	1	1	4	0	0	0	0	0	0	200	93.333336	1	1	1	-1	0	1	1	0	6	1	1	150	150	50.0	1	1	200.0	0	0	0	0	0	0	0.0	0	0	0.0	0.0	0.0	0	0	0	0	0	0	0	0	0.0	0	0	0	0	0	-1.0	0	0	0	1	0
1	8	23	11	115	18	3	2	1	0	5	1	4	0	0	0	0	0	0	200	93.333336	1	1	1	-1	0	1	1	0	6	1	1	150	150	50.0	1	1	200.0	0	0	0	0	0	0	0.0	0	0	0.0	0.0	0.0	0	0	0	0	0	0	0	0	0.0	0	0	0	0	0	-1.0	0	0	0	0	0
1	8	24	11	113	18	3	2	1	1	3	1	4	0	0	0	0	0	0	200	93.333336	-1	1	1	-1	0	1	1	0	6	1	1	150	150	50.0	1	1	200.0	0	0	0	0	0	0	0.0	0	0	0.0	0.0	0.0	0	0	0	0	0	0	0	0	0.0	0	0	0	0	0	-1.0	0	0	0	1	0
1	9	1	11	112	18	3	2	1	0	2	1	4	0	0	57	0	0	0	210	98.0	1	1	1	-1	0	1	1	0	7	1	1	200	100	66.666664	1	1	266.66666	0	0	0	0	0	0	0.0	0	0	0.0	0.0	0.0	0	0	0	0	0	0	0	0	0.0	0	0	0	0	0	-1.0	0	0	0	0	2
1	9	2	13	132	18	1	2	3	0	2	0	0	3	10	10	80	10	10	10	14.666667	0	0	0	0	-1	0	0	0	2	1	3	100	200	33.333332	1	1	133.33333	0	0	0	0	0	0	0.0	0	0	0.0	0.0	0.0	0	0	0	0	0	0	0	0	0.0	0	0	0	0	0	-1.0	0	0	0	1	2
1	9	3	12	122	18	3	2	2	1	2	1	4	0	0	0	0	0	0	175	81.666664	-1	1	-1	0	1	1	1	0	2	1	1	150	150	50.0	1	1	200.0	0	0	0	0	0	0	0.0	0	0	0.0	0.0	0.0	0	0	0	0	0	0	0	0	0.0	0	0	0	0	0	-1.0	0	0	0	0	0
1	9	4	12	124	18	3	2	2	0	4	1	4	0	0	0	0	0	0	175	81.666664	1	1	-1	0	1	1	1	0	2	1	1	150	150	50.0	1	1	200.0	0	0	0	0	0	0	0.0	0	0	0.0	0.0	0.0	0	0	0	0	0	0	0	0	0.0	0	0	0	0	0	-1.0	0	0	0	0	0
1	9	5	10	104	18	1	2	0	0	4	1	1	0	0	0	0	4	0	196	91.46667	0	0	1	0	0	-1	0	0	6	1	3	150	150	50.0	1	1	200.0	0	0	0	0	0	0	0.0	0	0	0.0	0.0	0.0	0	0	0	0	0	0	0	0	0.0	0	0	0	0	0	-1.0	0	0	0	0	1
1	9	6	12	123	18	3	2	2	0	3	1	4	0	0	0	0	0	0	175	81.666664	0	1	-1	0	1	1	1	0	2	1	1	150	150	50.0	1	1	200.0	0	0	0	0	0	0	0.0	0	0	0.0	0.0	0.0	0	0	0	0	0	0	0	0	0.0	0	0	0	0	0	-1.0	0	0	0	1	2
1	9	7	10	101	18	1	2	0	0	1	1	1	0	0	0	0	4	0	196	91.46667	0	0	1	0	0	-1	0	0	6	1	3	150	150	50.0	1	1	200.0	0	0	0	0	0	0	0.0	0	0	0.0	0.0	0.0	0	0	0	0	0	0	0	0	0.0	0	0	0	0	0	-1.0	0	0	0	1	0
1	9	8	10	105	18	1	2	0	1	5	1	1	0	0	0	0	4	0	196	95.46667	-1	0	1	0	0	-1	0	0	6	1	3	150	150	50.0	1	1	200.0	0	0	0	0	0	0	0.0	0	0	0.0	0.0	0.0	0	0	0	0	0	0	0	0	0.0	0	0	0	0	0	-1.0	0	0	0	0	0
1	9	9	11	116	18	3	2	1	0	6	1	4	0	0	57	0	0	0	210	98.0	1	1	1	-1	0	1	1	0	7	1	1	200	100	66.666664	1	1	266.66666	0	0	0	0	0	0	0.0	0	0	0.0	0.0	0.0	0	0	0	0	0	0	0	0	0.0	0	0	0	0	0	-1.0	0	0	0	0	2
1	9	10	13	131	18	1	2	3	0	1	0	0	3	10	10	80	10	10	10	7.6666665	0	0	0	0	-1	0	0	0	2	1	3	100	200	33.333332	1	1	133.33333	0	0	0	0	0	0	0.0	0	0	0.0	0.0	0.0	0	0	0	0	0	0	0	0	0.0	0	0	0	0	0	-1.0	0	0	0	0	2
1	9	11	10	103	18	1	2	0	0	3	1	1	0	0	0	0	4	0	196	91.46667	0	0	1	0	0	-1	0	0	6	1	3	150	150	50.0	1	1	200.0	0	0	0	0	0	0	0.0	0	0	0.0	0.0	0.0	0	0	0	0	0	0	0	0	0.0	0	0	0	0	0	-1.0	0	0	0	1	0
1	9	12	10	106	18	1	2	0	0	6	1	1	0	0	0	0	4	0	196	91.46667	0	0	1	0	0	-1	0	0	6	1	3	150	150	50.0	1	1	200.0	0	0	0	0	0	0	0.0	0	0	0.0	0.0	0.0	0	0	0	0	0	0	0	0	0.0	0	0	0	0	0	-1.0	0	0	0	1	0
1	9	13	10	102	18	1	2	0	0	2	1	1	0	0	0	0	4	0	196	91.46667	1	0	1	0	0	-1	0	0	6	1	3	150	150	50.0	1	1	200.0	0	0	0	0	0	0	0.0	0	0	0.0	0.0	0.0	0	0	0	0	0	0	0	0	0.0	0	0	0	0	0	-1.0	0	0	0	0	0
1	9	14	13	136	18	1	2	3	0	6	0	0	3	10	10	80	10	10	10	14.666667	0	0	0	0	-1	0	0	0	2	1	3	100	200	33.333332	1	1	133.33333	0	0	0	0	0	0	0.0	0	0	0.0	0.0	0.0	0	0	0	0	0	0	0	0	0.0	0	0	0	0	0	-1.0	0	0	0	0	0
1	9	15	13	134	18	1	2	3	1	4	0	0	3	10	10	80	10	10	10	0.0	-1	0	0	0	-1	0	0	0	2	1	3	100	200	33.333332	1	1	133.33333	0	0	0	0	0	0	0.0	0	0	0.0	0.0	0.0	0	0	0	0	0	0	0	0	0.0	0	0	0	0	0	-1.0	0	0	0	0	2
1	9	16	12	125	18	3	2	2	0	5	1	4	0	0	0	0	0	0	175	81.666664	1	1	-1	0	1	1	1	0	2	1	1	150	150	50.0	1	1	200.0	0	0	0	0	0	0	0.0	0	0	0.0	0.0	0.0	0	0	0	0	0	0	0	0	0.0	0	0	0	0	0	-1.0	0	0	0	1	0
1	9	17	11	114	18	3	2	1	0	4	1	4	0	0	57	0	0	0	210	98.0	0	1	1	-1	0	1	1	0	7	1	1	200	100	66.666664	1	1	266.66666	0	0	0	0	0	0	0.0	0	0	0.0	0.0	0.0	0	0	0	0	0	0	0	0	0.0	0	0	0	0	0	-1.0	0	0	0	1	1
1	9	18	13	135	18	1	2	3	0	5	0	0	3	10	10	80	10	10	10	14.666667	0	0	0	0	-1	0	0	0	2	1	3	100	200	33.333332	1	1	133.33333	0	0	0	0	0	0	0.0	0	0	0.0	0.0	0.0	0	0	0	0	0	0	0	0	0.0	0	0	0	0	0	-1.0	0	0	0	1	0
1	9	19	13	133	18	1	2	3	0	3	0	0	3	10	10	80	10	10	10	14.666667	0	0	0	0	-1	0	0	0	2	1	3	100	200	33.333332	1	1	133.33333	0	0	0	0	0	0	0.0	0	0	0.0	0.0	0.0	0	0	0	0	0	0	0	0	0.0	0	0	0	0	0	-1.0	0	0	0	1	2
1	9	20	12	121	18	3	2	2	0	1	1	4	0	0	0	0	0	0	175	81.666664	1	1	-1	0	1	1	1	0	2	1	1	150	150	50.0	1	1	200.0	0	0	0	0	0	0	0.0	0	0	0.0	0.0	0.0	0	0	0	0	0	0	0	0	0.0	0	0	0	0	0	-1.0	0	0	0	0	0
1	9	21	12	126	18	3	2	2	0	6	1	4	0	0	0	0	0	0	175	81.666664	1	1	-1	0	1	1	1	0	2	1	1	150	150	50.0	1	1	200.0	0	0	0	0	0	0	0.0	0	0	0.0	0.0	0.0	0	0	0	0	0	0	0	0	0.0	0	0	0	0	0	-1.0	0	0	0	1	0
1	9	22	11	111	18	3	2	1	0	1	1	4	0	0	57	0	0	0	210	98.0	1	1	1	-1	0	1	1	0	7	1	1	200	100	66.666664	1	1	266.66666	0	0	0	0	0	0	0.0	0	0	0.0	0.0	0.0	0	0	0	0	0	0	0	0	0.0	0	0	0	0	0	-1.0	0	0	0	1	0
1	9	23	11	115	18	3	2	1	0	5	1	4	0	0	57	0	0	0	210	98.0	1	1	1	-1	0	1	1	0	7	1	1	200	100	66.666664	1	1	266.66666	0	0	0	0	0	0	0.0	0	0	0.0	0.0	0.0	0	0	0	0	0	0	0	0	0.0	0	0	0	0	0	-1.0	0	0	0	0	0
1	9	24	11	113	18	3	2	1	1	3	1	4	0	0	57	0	0	0	210	155.0	-1	1	1	-1	0	1	1	0	7	1	1	200	100	66.666664	1	1	266.66666	0	0	0	0	0	0	0.0	0	0	0.0	0.0	0.0	0	0	0	0	0	0	0	0	0.0	0	0	0	0	0	-1.0	0	0	0	1	0
1	10	1	11	112	18	3	2	1	0	2	1	4	0	0	1	0	0	0	199	92.86667	1	1	1	-1	0	1	1	0	8	1	1	150	150	50.0	1	1	200.0	0	0	0	0	0	0	0.0	0	0	0.0	0.0	0.0	0	0	0	0	0	0	0	0	0.0	0	0	0	0	0	-1.0	0	0	0	0	2
1	10	2	13	132	18	1	2	3	0	2	0	0	0	0	0	0	0	0	20	9.333333	0	0	0	0	0	-1	0	0	1	1	3	150	150	50.0	1	1	200.0	0	0	0	0	0	0	0.0	0	0	0.0	0.0	0.0	0	0	0	0	0	0	0	0	0.0	0	0	0	0	0	-1.0	0	0	0	1	2
1	10	3	12	122	18	3	2	2	1	2	1	5	0	0	0	0	0	0	200	93.333336	-1	1	-1	1	1	1	1	0	3	1	1	150	150	50.0	1	1	200.0	0	0	0	0	0	0	0.0	0	0	0.0	0.0	0.0	0	0	0	0	0	0	0	0	0.0	0	0	0	0	0	-1.0	0	0	0	0	0
1	10	4	12	124	18	3	2	2	0	4	1	5	0	0	0	0	0	0	200	93.333336	1	1	-1	1	1	1	1	0	3	1	1	150	150	50.0	1	1	200.0	0	0	0	0	0	0	0.0	0	0	0.0	0.0	0.0	0	0	0	0	0	0	0	0	0.0	0	0	0	0	0	-1.0	0	0	0	0	0
1	10	5	10	104	18	1	2	0	0	4	1	3	0	0	0	0	1	0	199	92.86667	1	0	1	0	1	-1	1	0	7	1	3	150	150	50.0	1	1	200.0	0	0	0	0	0	0	0.0	0	0	0.0	0.0	0.0	0	0	0	0	0	0	0	0	0.0	0	0	0	0	0	-1.0	0	0	0	0	1
1	10	6	12	123	18	3	2	2	0	3	1	5	0	0	0	0	0	0	200	93.333336	1	1	-1	1	1	1	1	0	3	1	1	150	150	50.0	1	1	200.0	0	0	0	0	0	0	0.0	0	0	0.0	0.0	0.0	0	0	0	0	0	0	0	0	0.0	0	0	0	0	0	-1.0	0	0	0	1	2
1	10	7	10	101	18	1	2	0	0	1	1	3	0	0	0	0	1	0	199	92.86667	0	0	1	0	1	-1	1	0	7	1	3	150	150	50.0	1	1	200.0	0	0	0	0	0	0	0.0	0	0	0.0	0.0	0.0	0	0	0	0	0	0	0	0	0.0	0	0	0	0	0	-1.0	0	0	0	1	0
1	10	8	10	105	18	1	2	0	1	5	1	3	0	0	0	0	1	0	199	93.86667	-1	0	1	0	1	-1	1	0	7	1	3	150	150	50.0	1	1	200.0	0	0	0	0	0	0	0.0	0	0	0.0	0.0	0.0	0	0	0	0	0	0	0	0	0.0	0	0	0	0	0	-1.0	0	0	0	0	0
1	10	9	11	116	18	3	2	1	0	6	1	4	0	0	1	0	0	0	199	92.86667	1	1	1	-1	0	1	1	0	8	1	1	150	150	50.0	1	1	200.0	0	0	0	0	0	0	0.0	0	0	0.0	0.0	0.0	0	0	0	0	0	0	0	0	0.0	0	0	0	0	0	-1.0	0	0	0	0	2
1	10	10	13	131	18	1	2	3	0	1	0	0	0	0	0	0	0	0	20	9.333333	0	0	0	0	0	-1	0	0	1	1	3	150	150	50.0	1	1	200.0	0	0	0	0	0	0	0.0	0	0	0.0	0.0	0.0	0	0	0	0	0	0	0	0	0.0	0	0	0	0	0	-1.0	0	0	0	0	2
1	10	11	10	103	18	1	2	0	0	3	1	3	0	0	0	0	1	0	199	92.86667	0	0	1	0	1	-1	1	0	7	1	3	150	150	50.0	1	1	200.0	0	0	0	0	0	0	0.0	0	0	0.0	0.0	0.0	0	0	0	0	0	0	0	0	0.0	0	0	0	0	0	-1.0	0	0	0	1	0
1	10	12	10	106	18	1	2	0	0	6	1	3	0	0	0	0	1	0	199	92.86667	1	0	1	0	1	-1	1	0	7	1	3	150	150	50.0	1	1	200.0	0	0	0	0	0	0	0.0	0	0	0.0	0.0	0.0	0	0	0	0	0	0	0	0	0.0	0	0	0	0	0	-1.0	0	0	0	1	0
1	10	13	10	102	18	1	2	0	0	2	1	3	0	0	0	0	1	0	199	92.86667	1	0	1	0	1	-1	1	0	7	1	3	150	150	50.0	1	1	200.0	0	0	0	0	0	0	0.0	0	0	0.0	0.0	0.0	0	0	0	0	0	0	0	0	0.0	0	0	0	0	0	-1.0	0	0	0	0	0
1	10	14	13	136	18	1	2	3	0	6	0	0	0	0	0	0	0	0	20	9.333333	0	0	0	0	0	-1	0	0	1	1	3	150	150	50.0	1	1	200.0	0	0	0	0	0	0	0.0	0	0	0.0	0.0	0.0	0	0	0	0	0	0	0	0	0.0	0	0	0	0	0	-1.0	0	0	0	0	0
1	10	15	13	134	18	1	2	3	0	4	0	0	0	0	0	0	0	0	20	9.333333	0	0	0	0	0	-1	0	0	1	1	3	150	150	50.0	1	1	200.0	0	0	0	0	0	0	0.0	0	0	0.0	0.0	0.0	0	0	0	0	0	0	0	0	0.0	0	0	0	0	0	-1.0	0	0	0	0	2
1	10	16	12	125	18	3	2	2	0	5	1	5	0	0	0	0	0	0	200	93.333336	1	1	-1	1	1	1	1	0	3	1	1	150	150	50.0	1	1	200.0	0	0	0	0	0	0	0.0	0	0	0.0	0.0	0.0	0	0	0	0	0	0	0	0	0.0	0	0	0	0	0	-1.0	0	0	0	1	0
1	10	17	11	114	18	3	2	1	0	4	1	4	0	0	1	0	0	0	199	92.86667	0	1	1	-1	0	1	1	0	8	1	1	150	150	50.0	1	1	200.0	0	0	0	0	0	0	0.0	0	0	0.0	0.0	0.0	0	0	0	0	0	0	0	0	0.0	0	0	0	0	0	-1.0	0	0	0	1	1
1	10	18	13	135	18	1	2	3	1	5	0	0	0	0	0	0	0	0	20	0.0	-1	0	0	0	0	-1	0	0	1	1	3	150	150	50.0	1	1	200.0	0	0	0	0	0	0	0.0	0	0	0.0	0.0	0.0	0	0	0	0	0	0	0	0	0.0	0	0	0	0	0	-1.0	0	0	0	1	0
1	10	19	13	133	18	1	2	3	0	3	0	0	0	0	0	0	0	0	20	9.333333	0	0	0	0	0	-1	0	0	1	1	3	150	150	50.0	1	1	200.0	0	0	0	0	0	0	0.0	0	0	0.0	0.0	0.0	0	0	0	0	0	0	0	0	0.0	0	0	0	0	0	-1.0	0	0	0	1	2
1	10	20	12	121	18	3	2	2	0	1	1	5	0	0	0	0	0	0	200	93.333336	1	1	-1	1	1	1	1	0	3	1	1	150	150	50.0	1	1	200.0	0	0	0	0	0	0	0.0	0	0	0.0	0.0	0.0	0	0	0	0	0	0	0	0	0.0	0	0	0	0	0	-1.0	0	0	0	0	0
1	10	21	12	126	18	3	2	2	0	6	1	5	0	0	0	0	0	0	200	93.333336	1	1	-1	1	1	1	1	0	3	1	1	150	150	50.0	1	1	200.0	0	0	0	0	0	0	0.0	0	0	0.0	0.0	0.0	0	0	0	0	0	0	0	0	0.0	0	0	0	0	0	-1.0	0	0	0	1	0
1	10	22	11	111	18	3	2	1	0	1	1	4	0	0	1	0	0	0	199	92.86667	1	1	1	-1	0	1	1	0	8	1	1	150	150	50.0	1	1	200.0	0	0	0	0	0	0	0.0	0	0	0.0	0.0	0.0	0	0	0	0	0	0	0	0	0.0	0	0	0	0	0	-1.0	0	0	0	1	0
1	10	23	11	115	18	3	2	1	0	5	1	4	0	0	1	0	0	0	199	92.86667	1	1	1	-1	0	1	1	0	8	1	1	150	150	50.0	1	1	200.0	0	0	0	0	0	0	0.0	0	0	0.0	0.0	0.0	0	0	0	0	0	0	0	0	0.0	0	0	0	0	0	-1.0	0	0	0	0	0
1	10	24	11	113	18	3	2	1	1	3	1	4	0	0	1	0	0	0	199	93.86667	-1	1	1	-1	0	1	1	0	8	1	1	150	150	50.0	1	1	200.0	0	0	0	0	0	0	0.0	0	0	0.0	0.0	0.0	0	0	0	0	0	0	0	0	0.0	0	0	0	0	0	-1.0	0	0	0	1	0
1	11	1	11	112	18	3	2	1	0	2	1	4	0	0	0	0	0	0	200	93.333336	1	1	1	-1	0	1	1	0	9	1	3	150	150	50.0	1	1	200.0	0	0	0	0	0	0	0.0	0	0	0.0	0.0	0.0	0	0	0	0	0	0	0	0	0.0	0	0	0	0	0	-1.0	0	0	0	0	2
1	11	2	13	132	18	1	2	3	0	2	1	2	10	10	10	10	10	10	50	33.333332	0	1	0	0	0	1	-1	0	1	1	1	150	150	50.0	1	1	200.0	0	0	0	0	0	0	0.0	0	0	0.0	0.0	0.0	0	0	0	0	0	0	0	0	0.0	0	0	0	0	0	-1.0	0	0	0	1	2
1	11	3	12	122	18	3	2	2	1	2	1	4	0	25	0	0	0	0	175	106.666664	-1	1	-1	0	1	1	1	0	4	1	3	150	150	50.0	1	1	200.0	0	0	0	0	0	0	0.0	0	0	0.0	0.0	0.0	0	0	0	0	0	0	0	0	0.0	0	0	0	0	0	-1.0	0	0	0	0	0
1	11	4	12	124	18	3	2	2	0	4	1	4	0	25	0	0	0	0	175	81.666664	1	1	-1	0	1	1	1	0	4	1	3	150	150	50.0	1	1	200.0	0	0	0	0	0	0	0.0	0	0	0.0	0.0	0.0	0	0	0	0	0	0	0	0	0.0	0	0	0	0	0	-1.0	0	0	0	0	0
1	11	5	10	104	18	1	2	0	0	4	1	2	0	0	0	0	2	0	198	92.4	1	0	1	0	1	-1	0	0	8	1	1	150	150	50.0	1	1	200.0	0	0	0	0	0	0	0.0	0	0	0.0	0.0	0.0	0	0	0	0	0	0	0	0	0.0	0	0	0	0	0	-1.0	0	0	0	0	1
1	11	6	12	123	18	3	2	2	0	3	1	4	0	25	0	0	0	0	175	81.666664	0	1	-1	0	1	1	1	0	4	1	3	150	150	50.0	1	1	200.0	0	0	0	0	0	0	0.0	0	0	0.0	0.0	0.0	0	0	0	0	0	0	0	0	0.0	0	0	0	0	0	-1.0	0	0	0	1	2
1	11	7	10	101	18	1	2	0	0	1	1	2	0	0	0	0	2	0	198	92.4	0	0	1	0	1	-1	0	0	8	1	1	150	150	50.0	1	1	200.0	0	0	0	0	0	0	0.0	0	0	0.0	0.0	0.0	0	0	0	0	0	0	0	0	0.0	0	0	0	0	0	-1.0	0	0	0	1	0
1	11	8	10	105	18	1	2	0	1	5	1	2	0	0	0	0	2	0	198	94.4	-1	0	1	0	1	-1	0	0	8	1	1	150	150	50.0	1	1	200.0	0	0	0	0	0	0	0.0	0	0	0.0	0.0	0.0	0	0	0	0	0	0	0	0	0.0	0	0	0	0	0	-1.0	0	0	0	0	0
1	11	9	11	116	18	3	2	1	0	6	1	4	0	0	0	0	0	0	200	93.333336	1	1	1	-1	0	1	1	0	9	1	3	150	150	50.0	1	1	200.0	0	0	0	0	0	0	0.0	0	0	0.0	0.0	0.0	0	0	0	0	0	0	0	0	0.0	0	0	0	0	0	-1.0	0	0	0	0	2
1	11	10	13	131	18	1	2	3	0	1	1	2	10	10	10	10	10	10	50	33.333332	1	1	0	0	0	1	-1	0	1	1	1	150	150	50.0	1	1	200.0	0	0	0	0	0	0	0.0	0	0	0.0	0.0	0.0	0	0	0	0	0	0	0	0	0.0	0	0	0	0	0	-1.0	0	0	0	0	2
1	11	11	10	103	18	1	2	0	0	3	1	2	0	0	0	0	2	0	198	92.4	0	0	1	0	1	-1	0	0	8	1	1	150	150	50.0	1	1	200.0	0	0	0	0	0	0	0.0	0	0	0.0	0.0	0.0	0	0	0	0	0	0	0	0	0.0	0	0	0	0	0	-1.0	0	0	0	1	0
1	11	12	10	106	18	1	2	0	0	6	1	2	0	0	0	0	2	0	198	92.4	0	0	1	0	1	-1	0	0	8	1	1	150	150	50.0	1	1	200.0	0	0	0	0	0	0	0.0	0	0	0.0	0.0	0.0	0	0	0	0	0	0	0	0	0.0	0	0	0	0	0	-1.0	0	0	0	1	0
1	11	13	10	102	18	1	2	0	0	2	1	2	0	0	0	0	2	0	198	92.4	1	0	1	0	1	-1	0	0	8	1	1	150	150	50.0	1	1	200.0	0	0	0	0	0	0	0.0	0	0	0.0	0.0	0.0	0	0	0	0	0	0	0	0	0.0	0	0	0	0	0	-1.0	0	0	0	0	0
1	11	14	13	136	18	1	2	3	1	6	1	2	10	10	10	10	10	10	50	33.333332	-1	1	0	0	0	1	-1	0	1	1	1	150	150	50.0	1	1	200.0	0	0	0	0	0	0	0.0	0	0	0.0	0.0	0.0	0	0	0	0	0	0	0	0	0.0	0	0	0	0	0	-1.0	0	0	0	0	0
1	11	15	13	134	18	1	2	3	0	4	1	2	10	10	10	10	10	10	50	33.333332	0	1	0	0	0	1	-1	0	1	1	1	150	150	50.0	1	1	200.0	0	0	0	0	0	0	0.0	0	0	0.0	0.0	0.0	0	0	0	0	0	0	0	0	0.0	0	0	0	0	0	-1.0	0	0	0	0	2
1	11	16	12	125	18	3	2	2	0	5	1	4	0	25	0	0	0	0	175	81.666664	1	1	-1	0	1	1	1	0	4	1	3	150	150	50.0	1	1	200.0	0	0	0	0	0	0	0.0	0	0	0.0	0.0	0.0	0	0	0	0	0	0	0	0	0.0	0	0	0	0	0	-1.0	0	0	0	1	0
1	11	17	11	114	18	3	2	1	0	4	1	4	0	0	0	0	0	0	200	93.333336	0	1	1	-1	0	1	1	0	9	1	3	150	150	50.0	1	1	200.0	0	0	0	0	0	0	0.0	0	0	0.0	0.0	0.0	0	0	0	0	0	0	0	0	0.0	0	0	0	0	0	-1.0	0	0	0	1	1
1	11	18	13	135	18	1	2	3	0	5	1	2	10	10	10	10	10	10	50	33.333332	1	1	0	0	0	1	-1	0	1	1	1	150	150	50.0	1	1	200.0	0	0	0	0	0	0	0.0	0	0	0.0	0.0	0.0	0	0	0	0	0	0	0	0	0.0	0	0	0	0	0	-1.0	0	0	0	1	0
1	11	19	13	133	18	1	2	3	0	3	1	2	10	10	10	10	10	10	50	33.333332	0	1	0	0	0	1	-1	0	1	1	1	150	150	50.0	1	1	200.0	0	0	0	0	0	0	0.0	0	0	0.0	0.0	0.0	0	0	0	0	0	0	0	0	0.0	0	0	0	0	0	-1.0	0	0	0	1	2
1	11	20	12	121	18	3	2	2	0	1	1	4	0	25	0	0	0	0	175	81.666664	1	1	-1	0	1	1	1	0	4	1	3	150	150	50.0	1	1	200.0	0	0	0	0	0	0	0.0	0	0	0.0	0.0	0.0	0	0	0	0	0	0	0	0	0.0	0	0	0	0	0	-1.0	0	0	0	0	0
1	11	21	12	126	18	3	2	2	0	6	1	4	0	25	0	0	0	0	175	81.666664	1	1	-1	0	1	1	1	0	4	1	3	150	150	50.0	1	1	200.0	0	0	0	0	0	0	0.0	0	0	0.0	0.0	0.0	0	0	0	0	0	0	0	0	0.0	0	0	0	0	0	-1.0	0	0	0	1	0
1	11	22	11	111	18	3	2	1	0	1	1	4	0	0	0	0	0	0	200	93.333336	1	1	1	-1	0	1	1	0	9	1	3	150	150	50.0	1	1	200.0	0	0	0	0	0	0	0.0	0	0	0.0	0.0	0.0	0	0	0	0	0	0	0	0	0.0	0	0	0	0	0	-1.0	0	0	0	1	0
1	11	23	11	115	18	3	2	1	0	5	1	4	0	0	0	0	0	0	200	93.333336	1	1	1	-1	0	1	1	0	9	1	3	150	150	50.0	1	1	200.0	0	0	0	0	0	0	0.0	0	0	0.0	0.0	0.0	0	0	0	0	0	0	0	0	0.0	0	0	0	0	0	-1.0	0	0	0	0	0
1	11	24	11	113	18	3	2	1	1	3	1	4	0	0	0	0	0	0	200	93.333336	-1	1	1	-1	0	1	1	0	9	1	3	150	150	50.0	1	1	200.0	0	0	0	0	0	0	0.0	0	0	0.0	0.0	0.0	0	0	0	0	0	0	0	0	0.0	0	0	0	0	0	-1.0	0	0	0	1	0
1	12	1	11	112	18	3	2	1	0	2	1	3	0	0	1	0	0	0	199	92.86667	1	0	1	-1	0	1	1	0	10	1	1	150	150	50.0	1	1	200.0	0	0	0	0	0	0	0.0	0	0	0.0	0.0	0.0	0	0	0	0	0	0	0	0	0.0	0	0	0	0	0	-1.0	0	0	0	0	2
1	12	2	13	132	18	1	2	3	0	2	1	2	15	15	15	15	15	25	100	61.666668	0	1	0	0	0	1	-1	0	2	1	3	150	150	50.0	1	1	200.0	0	0	0	0	0	0	0.0	0	0	0.0	0.0	0.0	0	0	0	0	0	0	0	0	0.0	0	0	0	0	0	-1.0	0	0	0	1	2
1	12	3	12	122	18	3	2	2	1	2	1	4	0	42	0	0	0	0	225	147.0	-1	1	-1	0	1	1	1	0	5	1	1	200	100	66.666664	1	1	266.66666	0	0	0	0	0	0	0.0	0	0	0.0	0.0	0.0	0	0	0	0	0	0	0	0	0.0	0	0	0	0	0	-1.0	0	0	0	0	0
1	12	4	12	124	18	3	2	2	0	4	1	4	0	42	0	0	0	0	225	105.0	1	1	-1	0	1	1	1	0	5	1	1	200	100	66.666664	1	1	266.66666	0	0	0	0	0	0	0.0	0	0	0.0	0.0	0.0	0	0	0	0	0	0	0	0	0.0	0	0	0	0	0	-1.0	0	0	0	0	0
1	12	5	10	104	18	1	2	0	0	4	1	1	0	0	0	0	0	0	133	62.066666	0	0	1	0	0	-1	0	0	9	1	3	100	200	33.333332	1	1	133.33333	0	0	0	0	0	0	0.0	0	0	0.0	0.0	0.0	0	0	0	0	0	0	0	0	0.0	0	0	0	0	0	-1.0	0	0	0	0	1
1	12	6	12	123	18	3	2	2	0	3	1	4	0	42	0	0	0	0	225	105.0	0	1	-1	0	1	1	1	0	5	1	1	200	100	66.666664	1	1	266.66666	0	0	0	0	0	0	0.0	0	0	0.0	0.0	0.0	0	0	0	0	0	0	0	0	0.0	0	0	0	0	0	-1.0	0	0	0	1	2
1	12	7	10	101	18	1	2	0	0	1	1	1	0	0	0	0	0	0	133	62.066666	0	0	1	0	0	-1	0	0	9	1	3	100	200	33.333332	1	1	133.33333	0	0	0	0	0	0	0.0	0	0	0.0	0.0	0.0	0	0	0	0	0	0	0	0	0.0	0	0	0	0	0	-1.0	0	0	0	1	0
1	12	8	10	105	18	1	2	0	1	5	1	1	0	0	0	0	0	0	133	62.066666	-1	0	1	0	0	-1	0	0	9	1	3	100	200	33.333332	1	1	133.33333	0	0	0	0	0	0	0.0	0	0	0.0	0.0	0.0	0	0	0	0	0	0	0	0	0.0	0	0	0	0	0	-1.0	0	0	0	0	0
1	12	9	11	116	18	3	2	1	0	6	1	3	0	0	1	0	0	0	199	92.86667	1	0	1	-1	0	1	1	0	10	1	1	150	150	50.0	1	1	200.0	0	0	0	0	0	0	0.0	0	0	0.0	0.0	0.0	0	0	0	0	0	0	0	0	0.0	0	0	0	0	0	-1.0	0	0	0	0	2
1	12	10	13	131	18	1	2	3	0	1	1	2	15	15	15	15	15	25	100	61.666668	1	1	0	0	0	1	-1	0	2	1	3	150	150	50.0	1	1	200.0	0	0	0	0	0	0	0.0	0	0	0.0	0.0	0.0	0	0	0	0	0	0	0	0	0.0	0	0	0	0	0	-1.0	0	0	0	0	2
1	12	11	10	103	18	1	2	0	0	3	1	1	0	0	0	0	0	0	133	62.066666	0	0	1	0	0	-1	0	0	9	1	3	100	200	33.333332	1	1	133.33333	0	0	0	0	0	0	0.0	0	0	0.0	0.0	0.0	0	0	0	0	0	0	0	0	0.0	0	0	0	0	0	-1.0	0	0	0	1	0
1	12	12	10	106	18	1	2	0	0	6	1	1	0	0	0	0	0	0	133	62.066666	0	0	1	0	0	-1	0	0	9	1	3	100	200	33.333332	1	1	133.33333	0	0	0	0	0	0	0.0	0	0	0.0	0.0	0.0	0	0	0	0	0	0	0	0	0.0	0	0	0	0	0	-1.0	0	0	0	1	0
1	12	13	10	102	18	1	2	0	0	2	1	1	0	0	0	0	0	0	133	62.066666	1	0	1	0	0	-1	0	0	9	1	3	100	200	33.333332	1	1	133.33333	0	0	0	0	0	0	0.0	0	0	0.0	0.0	0.0	0	0	0	0	0	0	0	0	0.0	0	0	0	0	0	-1.0	0	0	0	0	0
1	12	14	13	136	18	1	2	3	1	6	1	2	15	15	15	15	15	25	100	71.666664	-1	1	0	0	0	1	-1	0	2	1	3	150	150	50.0	1	1	200.0	0	0	0	0	0	0	0.0	0	0	0.0	0.0	0.0	0	0	0	0	0	0	0	0	0.0	0	0	0	0	0	-1.0	0	0	0	0	0
1	12	15	13	134	18	1	2	3	0	4	1	2	15	15	15	15	15	25	100	61.666668	0	1	0	0	0	1	-1	0	2	1	3	150	150	50.0	1	1	200.0	0	0	0	0	0	0	0.0	0	0	0.0	0.0	0.0	0	0	0	0	0	0	0	0	0.0	0	0	0	0	0	-1.0	0	0	0	0	2
1	12	16	12	125	18	3	2	2	0	5	1	4	0	42	0	0	0	0	225	105.0	1	1	-1	0	1	1	1	0	5	1	1	200	100	66.666664	1	1	266.66666	0	0	0	0	0	0	0.0	0	0	0.0	0.0	0.0	0	0	0	0	0	0	0	0	0.0	0	0	0	0	0	-1.0	0	0	0	1	0
1	12	17	11	114	18	3	2	1	0	4	1	3	0	0	1	0	0	0	199	92.86667	0	0	1	-1	0	1	1	0	10	1	1	150	150	50.0	1	1	200.0	0	0	0	0	0	0	0.0	0	0	0.0	0.0	0.0	0	0	0	0	0	0	0	0	0.0	0	0	0	0	0	-1.0	0	0	0	1	1
1	12	18	13	135	18	1	2	3	0	5	1	2	15	15	15	15	15	25	100	61.666668	1	1	0	0	0	1	-1	0	2	1	3	150	150	50.0	1	1	200.0	0	0	0	0	0	0	0.0	0	0	0.0	0.0	0.0	0	0	0	0	0	0	0	0	0.0	0	0	0	0	0	-1.0	0	0	0	1	0
1	12	19	13	133	18	1	2	3	0	3	1	2	15	15	15	15	15	25	100	61.666668	0	1	0	0	0	1	-1	0	2	1	3	150	150	50.0	1	1	200.0	0	0	0	0	0	0	0.0	0	0	0.0	0.0	0.0	0	0	0	0	0	0	0	0	0.0	0	0	0	0	0	-1.0	0	0	0	1	2
1	12	20	12	121	18	3	2	2	0	1	1	4	0	42	0	0	0	0	225	105.0	1	1	-1	0	1	1	1	0	5	1	1	200	100	66.666664	1	1	266.66666	0	0	0	0	0	0	0.0	0	0	0.0	0.0	0.0	0	0	0	0	0	0	0	0	0.0	0	0	0	0	0	-1.0	0	0	0	0	0
1	12	21	12	126	18	3	2	2	0	6	1	4	0	42	0	0	0	0	225	105.0	1	1	-1	0	1	1	1	0	5	1	1	200	100	66.666664	1	1	266.66666	0	0	0	0	0	0	0.0	0	0	0.0	0.0	0.0	0	0	0	0	0	0	0	0	0.0	0	0	0	0	0	-1.0	0	0	0	1	0
1	12	22	11	111	18	3	2	1	0	1	1	3	0	0	1	0	0	0	199	92.86667	0	0	1	-1	0	1	1	0	10	1	1	150	150	50.0	1	1	200.0	0	0	0	0	0	0	0.0	0	0	0.0	0.0	0.0	0	0	0	0	0	0	0	0	0.0	0	0	0	0	0	-1.0	0	0	0	1	0
1	12	23	11	115	18	3	2	1	0	5	1	3	0	0	1	0	0	0	199	92.86667	1	0	1	-1	0	1	1	0	10	1	1	150	150	50.0	1	1	200.0	0	0	0	0	0	0	0.0	0	0	0.0	0.0	0.0	0	0	0	0	0	0	0	0	0.0	0	0	0	0	0	-1.0	0	0	0	0	0
1	12	24	11	113	18	3	2	1	1	3	1	3	0	0	1	0	0	0	199	93.86667	-1	0	1	-1	0	1	1	0	10	1	1	150	150	50.0	1	1	200.0	0	0	0	0	0	0	0.0	0	0	0.0	0.0	0.0	0	0	0	0	0	0	0	0	0.0	0	0	0	0	0	-1.0	0	0	0	1	0
1	13	1	11	112	18	3	2	1	0	2	0	2	0	0	3	0	0	0	130	60.666668	1	0	1	-1	0	0	1	0	11	1	3	100	200	33.333332	1	1	133.33333	0	0	0	0	0	0	0.0	0	0	0.0	0.0	0.0	0	0	0	0	0	0	0	0	0.0	0	0	0	0	0	-1.0	0	0	0	0	2
1	13	2	13	132	18	1	2	3	0	2	1	1	15	15	15	15	15	75	50	38.333332	0	0	0	0	0	1	-1	0	3	1	1	150	150	50.0	1	1	200.0	0	0	0	0	0	0	0.0	0	0	0.0	0.0	0.0	0	0	0	0	0	0	0	0	0.0	0	0	0	0	0	-1.0	0	0	0	1	2
1	13	3	12	122	18	3	2	2	1	2	1	4	0	42	0	0	0	0	225	147.0	-1	1	-1	0	1	1	1	0	6	1	3	200	100	66.666664	1	1	266.66666	0	0	0	0	0	0	0.0	0	0	0.0	0.0	0.0	0	0	0	0	0	0	0	0	0.0	0	0	0	0	0	-1.0	0	0	0	0	0
1	13	4	12	124	18	3	2	2	0	4	1	4	0	42	0	0	0	0	225	105.0	1	1	-1	0	1	1	1	0	6	1	3	200	100	66.666664	1	1	266.66666	0	0	0	0	0	0	0.0	0	0	0.0	0.0	0.0	0	0	0	0	0	0	0	0	0.0	0	0	0	0	0	-1.0	0	0	0	0	0
1	13	5	10	104	18	1	2	0	0	4	1	1	0	0	0	0	1	0	199	92.86667	0	0	1	0	0	-1	0	0	10	1	1	150	150	50.0	1	1	200.0	0	0	0	0	0	0	0.0	0	0	0.0	0.0	0.0	0	0	0	0	0	0	0	0	0.0	0	0	0	0	0	-1.0	0	0	0	0	1
1	13	6	12	123	18	3	2	2	0	3	1	4	0	42	0	0	0	0	225	105.0	0	1	-1	0	1	1	1	0	6	1	3	200	100	66.666664	1	1	266.66666	0	0	0	0	0	0	0.0	0	0	0.0	0.0	0.0	0	0	0	0	0	0	0	0	0.0	0	0	0	0	0	-1.0	0	0	0	1	2
1	13	7	10	101	18	1	2	0	0	1	1	1	0	0	0	0	1	0	199	92.86667	0	0	1	0	0	-1	0	0	10	1	1	150	150	50.0	1	1	200.0	0	0	0	0	0	0	0.0	0	0	0.0	0.0	0.0	0	0	0	0	0	0	0	0	0.0	0	0	0	0	0	-1.0	0	0	0	1	0
1	13	8	10	105	18	1	2	0	1	5	1	1	0	0	0	0	1	0	199	93.86667	-1	0	1	0	0	-1	0	0	10	1	1	150	150	50.0	1	1	200.0	0	0	0	0	0	0	0.0	0	0	0.0	0.0	0.0	0	0	0	0	0	0	0	0	0.0	0	0	0	0	0	-1.0	0	0	0	0	0
1	13	9	11	116	18	3	2	1	0	6	0	2	0	0	3	0	0	0	130	60.666668	1	0	1	-1	0	0	1	0	11	1	3	100	200	33.333332	1	1	133.33333	0	0	0	0	0	0	0.0	0	0	0.0	0.0	0.0	0	0	0	0	0	0	0	0	0.0	0	0	0	0	0	-1.0	0	0	0	0	2
1	13	10	13	131	18	1	2	3	0	1	1	1	15	15	15	15	15	75	50	38.333332	0	0	0	0	0	1	-1	0	3	1	1	150	150	50.0	1	1	200.0	0	0	0	0	0	0	0.0	0	0	0.0	0.0	0.0	0	0	0	0	0	0	0	0	0.0	0	0	0	0	0	-1.0	0	0	0	0	2
1	13	11	10	103	18	1	2	0	0	3	1	1	0	0	0	0	1	0	199	92.86667	0	0	1	0	0	-1	0	0	10	1	1	150	150	50.0	1	1	200.0	0	0	0	0	0	0	0.0	0	0	0.0	0.0	0.0	0	0	0	0	0	0	0	0	0.0	0	0	0	0	0	-1.0	0	0	0	1	0
1	13	12	10	106	18	1	2	0	0	6	1	1	0	0	0	0	1	0	199	92.86667	0	0	1	0	0	-1	0	0	10	1	1	150	150	50.0	1	1	200.0	0	0	0	0	0	0	0.0	0	0	0.0	0.0	0.0	0	0	0	0	0	0	0	0	0.0	0	0	0	0	0	-1.0	0	0	0	1	0
1	13	13	10	102	18	1	2	0	0	2	1	1	0	0	0	0	1	0	199	92.86667	1	0	1	0	0	-1	0	0	10	1	1	150	150	50.0	1	1	200.0	0	0	0	0	0	0	0.0	0	0	0.0	0.0	0.0	0	0	0	0	0	0	0	0	0.0	0	0	0	0	0	-1.0	0	0	0	0	0
1	13	14	13	136	18	1	2	3	1	6	1	1	15	15	15	15	15	75	50	98.333336	-1	0	0	0	0	1	-1	0	3	1	1	150	150	50.0	1	1	200.0	0	0	0	0	0	0	0.0	0	0	0.0	0.0	0.0	0	0	0	0	0	0	0	0	0.0	0	0	0	0	0	-1.0	0	0	0	0	0
1	13	15	13	134	18	1	2	3	0	4	1	1	15	15	15	15	15	75	50	38.333332	0	0	0	0	0	1	-1	0	3	1	1	150	150	50.0	1	1	200.0	0	0	0	0	0	0	0.0	0	0	0.0	0.0	0.0	0	0	0	0	0	0	0	0	0.0	0	0	0	0	0	-1.0	0	0	0	0	2
1	13	16	12	125	18	3	2	2	0	5	1	4	0	42	0	0	0	0	225	105.0	1	1	-1	0	1	1	1	0	6	1	3	200	100	66.666664	1	1	266.66666	0	0	0	0	0	0	0.0	0	0	0.0	0.0	0.0	0	0	0	0	0	0	0	0	0.0	0	0	0	0	0	-1.0	0	0	0	1	0
1	13	17	11	114	18	3	2	1	0	4	0	2	0	0	3	0	0	0	130	60.666668	0	0	1	-1	0	0	1	0	11	1	3	100	200	33.333332	1	1	133.33333	0	0	0	0	0	0	0.0	0	0	0.0	0.0	0.0	0	0	0	0	0	0	0	0	0.0	0	0	0	0	0	-1.0	0	0	0	1	1
1	13	18	13	135	18	1	2	3	0	5	1	1	15	15	15	15	15	75	50	38.333332	1	0	0	0	0	1	-1	0	3	1	1	150	150	50.0	1	1	200.0	0	0	0	0	0	0	0.0	0	0	0.0	0.0	0.0	0	0	0	0	0	0	0	0	0.0	0	0	0	0	0	-1.0	0	0	0	1	0
1	13	19	13	133	18	1	2	3	0	3	1	1	15	15	15	15	15	75	50	38.333332	0	0	0	0	0	1	-1	0	3	1	1	150	150	50.0	1	1	200.0	0	0	0	0	0	0	0.0	0	0	0.0	0.0	0.0	0	0	0	0	0	0	0	0	0.0	0	0	0	0	0	-1.0	0	0	0	1	2
1	13	20	12	121	18	3	2	2	0	1	1	4	0	42	0	0	0	0	225	105.0	1	1	-1	0	1	1	1	0	6	1	3	200	100	66.666664	1	1	266.66666	0	0	0	0	0	0	0.0	0	0	0.0	0.0	0.0	0	0	0	0	0	0	0	0	0.0	0	0	0	0	0	-1.0	0	0	0	0	0
1	13	21	12	126	18	3	2	2	0	6	1	4	0	42	0	0	0	0	225	105.0	1	1	-1	0	1	1	1	0	6	1	3	200	100	66.666664	1	1	266.66666	0	0	0	0	0	0	0.0	0	0	0.0	0.0	0.0	0	0	0	0	0	0	0	0	0.0	0	0	0	0	0	-1.0	0	0	0	1	0
1	13	22	11	111	18	3	2	1	0	1	0	2	0	0	3	0	0	0	130	60.666668	0	0	1	-1	0	0	1	0	11	1	3	100	200	33.333332	1	1	133.33333	0	0	0	0	0	0	0.0	0	0	0.0	0.0	0.0	0	0	0	0	0	0	0	0	0.0	0	0	0	0	0	-1.0	0	0	0	1	0
1	13	23	11	115	18	3	2	1	0	5	0	2	0	0	3	0	0	0	130	60.666668	0	0	1	-1	0	0	1	0	11	1	3	100	200	33.333332	1	1	133.33333	0	0	0	0	0	0	0.0	0	0	0.0	0.0	0.0	0	0	0	0	0	0	0	0	0.0	0	0	0	0	0	-1.0	0	0	0	0	0
1	13	24	11	113	18	3	2	1	1	3	0	2	0	0	3	0	0	0	130	0.0	-1	0	1	-1	0	0	1	0	11	1	3	100	200	33.333332	1	1	133.33333	0	0	0	0	0	0	0.0	0	0	0.0	0.0	0.0	0	0	0	0	0	0	0	0	0.0	0	0	0	0	0	-1.0	0	0	0	1	0
1	14	1	11	112	18	3	2	1	0	2	0	0	0	0	0	0	0	0	0	0.0	0	0	0	0	0	-1	0	0	1	0	1	100	200	33.333332	0	1	0.0	0	0	0	0	0	0	3.0	0	15	0.0	0.0	34.782608	0	1	0	0	0	0	0	0	0.0	0	1	0	0	0	0.0	0	0	0	0	2
1	14	2	13	132	18	1	2	3	0	2	1	2	5	5	5	5	5	32	50	28.333334	0	1	0	0	0	1	-1	0	4	0	3	200	100	66.666664	1	0	112.0	0	0	0	0	0	0	6.0	15	0	0.0	0.0	65.21739	1	0	0	0	0	0	0	0	100.0	1	0	0	0	0	1.0	0	0	0	1	2
1	14	3	12	122	18	3	2	2	1	2	1	3	0	25	0	0	0	0	175	106.666664	-1	1	-1	0	1	0	1	0	7	1	1	150	150	50.0	1	1	200.0	0	0	0	0	0	0	0.0	0	0	0.0	0.0	0.0	0	0	0	0	0	0	0	0	0.0	0	0	0	0	0	-1.0	0	0	0	0	0
1	14	4	12	124	18	3	2	2	0	4	1	3	0	25	0	0	0	0	175	81.666664	1	1	-1	0	1	0	1	0	7	1	1	150	150	50.0	1	1	200.0	0	0	0	0	0	0	0.0	0	0	0.0	0.0	0.0	0	0	0	0	0	0	0	0	0.0	0	0	0	0	0	-1.0	0	0	0	0	0
1	14	5	10	104	18	1	2	0	0	4	1	3	0	0	0	0	0	0	200	93.333336	0	0	1	1	0	-1	1	0	11	1	3	150	150	50.0	1	1	200.0	0	0	0	0	0	0	0.0	0	0	0.0	0.0	0.0	0	0	0	0	0	0	0	0	0.0	0	0	0	0	0	-1.0	0	0	0	0	1
1	14	6	12	123	18	3	2	2	0	3	1	3	0	25	0	0	0	0	175	81.666664	0	1	-1	0	1	0	1	0	7	1	1	150	150	50.0	1	1	200.0	0	0	0	0	0	0	0.0	0	0	0.0	0.0	0.0	0	0	0	0	0	0	0	0	0.0	0	0	0	0	0	-1.0	0	0	0	1	2
1	14	7	10	101	18	1	2	0	0	1	1	3	0	0	0	0	0	0	200	93.333336	0	0	1	1	0	-1	1	0	11	1	3	150	150	50.0	1	1	200.0	0	0	0	0	0	0	0.0	0	0	0.0	0.0	0.0	0	0	0	0	0	0	0	0	0.0	0	0	0	0	0	-1.0	0	0	0	1	0
1	14	8	10	105	18	1	2	0	1	5	1	3	0	0	0	0	0	0	200	93.333336	-1	0	1	1	0	-1	1	0	11	1	3	150	150	50.0	1	1	200.0	0	0	0	0	0	0	0.0	0	0	0.0	0.0	0.0	0	0	0	0	0	0	0	0	0.0	0	0	0	0	0	-1.0	0	0	0	0	0
1	14	9	11	116	18	3	2	1	0	6	0	0	0	0	0	0	0	0	0	0.0	0	0	0	0	0	-1	0	0	1	0	1	100	200	33.333332	0	1	0.0	0	0	0	0	0	0	3.0	0	15	0.0	0.0	34.782608	0	1	0	0	0	0	0	0	0.0	0	1	0	0	0	0.0	0	0	0	0	2
1	14	10	13	131	18	1	2	3	0	1	1	2	5	5	5	5	5	32	50	28.333334	1	1	0	0	0	1	-1	0	4	0	3	200	100	66.666664	1	0	112.0	0	0	0	0	0	0	6.0	15	0	0.0	0.0	65.21739	1	0	0	0	0	0	0	0	100.0	1	0	0	0	0	1.0	0	0	0	0	2
1	14	11	10	103	18	1	2	0	0	3	1	3	0	0	0	0	0	0	200	93.333336	1	0	1	1	0	-1	1	0	11	1	3	150	150	50.0	1	1	200.0	0	0	0	0	0	0	0.0	0	0	0.0	0.0	0.0	0	0	0	0	0	0	0	0	0.0	0	0	0	0	0	-1.0	0	0	0	1	0
1	14	12	10	106	18	1	2	0	0	6	1	3	0	0	0	0	0	0	200	93.333336	1	0	1	1	0	-1	1	0	11	1	3	150	150	50.0	1	1	200.0	0	0	0	0	0	0	0.0	0	0	0.0	0.0	0.0	0	0	0	0	0	0	0	0	0.0	0	0	0	0	0	-1.0	0	0	0	1	0
1	14	13	10	102	18	1	2	0	0	2	1	3	0	0	0	0	0	0	200	93.333336	1	0	1	1	0	-1	1	0	11	1	3	150	150	50.0	1	1	200.0	0	0	0	0	0	0	0.0	0	0	0.0	0.0	0.0	0	0	0	0	0	0	0	0	0.0	0	0	0	0	0	-1.0	0	0	0	0	0
1	14	14	13	136	18	1	2	3	1	6	1	2	5	5	5	5	5	32	50	55.333332	-1	1	0	0	0	1	-1	0	4	0	3	200	100	66.666664	1	0	112.0	30	75	20	0	0	0	6.0	12	0	2.0	2.0	65.21739	1	0	20	20	20	40	30	30	100.0	1	0	1	1	1	1.0	0	0	0	0	0
1	14	15	13	134	18	1	2	3	0	4	1	2	5	5	5	5	5	32	50	28.333334	0	1	0	0	0	1	-1	0	4	0	3	200	100	66.666664	1	0	112.0	0	0	0	0	0	0	6.0	15	0	0.0	0.0	65.21739	1	0	0	0	0	0	0	0	100.0	1	0	0	0	0	1.0	0	0	0	0	2
1	14	16	12	125	18	3	2	2	0	5	1	3	0	25	0	0	0	0	175	81.666664	0	1	-1	0	1	0	1	0	7	1	1	150	150	50.0	1	1	200.0	0	0	0	0	0	0	0.0	0	0	0.0	0.0	0.0	0	0	0	0	0	0	0	0	0.0	0	0	0	0	0	-1.0	0	0	0	1	0
1	14	17	11	114	18	3	2	1	0	4	0	0	0	0	0	0	0	0	0	0.0	0	0	0	0	0	-1	0	0	1	0	1	100	200	33.333332	0	1	0.0	0	0	0	0	0	0	3.0	0	15	0.0	0.0	34.782608	0	1	0	0	0	0	0	0	0.0	0	1	0	0	0	0.0	0	0	0	1	1
1	14	18	13	135	18	1	2	3	0	5	1	2	5	5	5	5	5	32	50	28.333334	1	1	0	0	0	1	-1	0	4	0	3	200	100	66.666664	1	0	112.0	0	0	0	0	0	0	6.0	15	0	0.0	0.0	65.21739	1	0	0	0	0	0	0	0	100.0	1	0	0	0	0	1.0	0	0	0	1	0
1	14	19	13	133	18	1	2	3	0	3	1	2	5	5	5	5	5	32	50	28.333334	0	1	0	0	0	1	-1	0	4	0	3	200	100	66.666664	1	0	112.0	0	0	0	0	0	0	6.0	15	0	0.0	0.0	65.21739	1	0	0	0	0	0	0	0	100.0	1	0	0	0	0	1.0	0	0	0	1	2
1	14	20	12	121	18	3	2	2	0	1	1	3	0	25	0	0	0	0	175	81.666664	1	1	-1	0	1	0	1	0	7	1	1	150	150	50.0	1	1	200.0	0	0	0	0	0	0	0.0	0	0	0.0	0.0	0.0	0	0	0	0	0	0	0	0	0.0	0	0	0	0	0	-1.0	0	0	0	0	0
1	14	21	12	126	18	3	2	2	0	6	1	3	0	25	0	0	0	0	175	81.666664	1	1	-1	0	1	0	1	0	7	1	1	150	150	50.0	1	1	200.0	0	0	0	0	0	0	0.0	0	0	0.0	0.0	0.0	0	0	0	0	0	0	0	0	0.0	0	0	0	0	0	-1.0	0	0	0	1	0
1	14	22	11	111	18	3	2	1	0	1	0	0	0	0	0	0	0	0	0	0.0	0	0	0	0	0	-1	0	0	1	0	1	100	200	33.333332	0	1	0.0	0	0	0	0	0	0	3.0	0	15	0.0	0.0	34.782608	0	1	0	0	0	0	0	0	0.0	0	1	0	0	0	0.0	0	0	0	1	0
1	14	23	11	115	18	3	2	1	1	5	0	0	0	0	0	0	0	0	0	0.0	-1	0	0	0	0	-1	0	0	1	0	1	100	200	33.333332	0	1	0.0	0	0	0	30	75	20	3.0	0	12	2.0	2.0	34.782608	0	1	40	30	30	20	20	20	0.0	0	1	0	0	0	0.0	1	1	1	0	0
1	14	24	11	113	18	3	2	1	0	3	0	0	0	0	0	0	0	0	0	0.0	0	0	0	0	0	-1	0	0	1	0	1	100	200	33.333332	0	1	0.0	0	0	0	0	0	0	3.0	0	15	0.0	0.0	34.782608	0	1	0	0	0	0	0	0	0.0	0	1	0	0	0	0.0	0	0	0	1	0
1	15	1	11	112	18	3	2	1	0	2	0	1	30	0	0	0	0	0	170	79.333336	0	-1	0	0	0	0	1	0	1	1	1	150	150	50.0	1	1	200.0	0	0	0	0	0	0	0.0	0	0	0.0	0.0	0.0	0	0	0	0	0	0	0	0	0.0	0	0	0	0	0	-1.0	0	0	0	0	2
1	15	2	13	132	18	1	2	3	0	2	1	1	10	10	10	10	20	90	50	33.333332	0	1	0	0	0	0	-1	0	5	1	3	150	150	50.0	1	1	200.0	0	0	0	0	0	0	0.0	0	0	0.0	0.0	0.0	0	0	0	0	0	0	0	0	0.0	0	0	0	0	0	-1.0	0	0	0	1	2
1	15	3	12	122	18	3	2	2	1	2	1	3	0	10	0	0	0	0	190	98.666664	-1	1	-1	0	1	0	1	0	8	1	1	150	150	50.0	1	1	200.0	0	0	0	0	0	0	0.0	0	0	0.0	0.0	0.0	0	0	0	0	0	0	0	0	0.0	0	0	0	0	0	-1.0	0	0	0	0	0
1	15	4	12	124	18	3	2	2	0	4	1	3	0	10	0	0	0	0	190	88.666664	1	1	-1	0	1	0	1	0	8	1	1	150	150	50.0	1	1	200.0	0	0	0	0	0	0	0.0	0	0	0.0	0.0	0.0	0	0	0	0	0	0	0	0	0.0	0	0	0	0	0	-1.0	0	0	0	0	0
1	15	5	10	104	18	1	2	0	0	4	1	4	0	0	0	0	0	0	200	93.333336	1	0	1	1	1	-1	1	0	12	1	3	150	150	50.0	1	1	200.0	0	0	0	0	0	0	0.0	0	0	0.0	0.0	0.0	0	0	0	0	0	0	0	0	0.0	0	0	0	0	0	-1.0	0	0	0	0	1
1	15	6	12	123	18	3	2	2	0	3	1	3	0	10	0	0	0	0	190	88.666664	0	1	-1	0	1	0	1	0	8	1	1	150	150	50.0	1	1	200.0	0	0	0	0	0	0	0.0	0	0	0.0	0.0	0.0	0	0	0	0	0	0	0	0	0.0	0	0	0	0	0	-1.0	0	0	0	1	2
1	15	7	10	101	18	1	2	0	0	1	1	4	0	0	0	0	0	0	200	93.333336	0	0	1	1	1	-1	1	0	12	1	3	150	150	50.0	1	1	200.0	0	0	0	0	0	0	0.0	0	0	0.0	0.0	0.0	0	0	0	0	0	0	0	0	0.0	0	0	0	0	0	-1.0	0	0	0	1	0
1	15	8	10	105	18	1	2	0	1	5	1	4	0	0	0	0	0	0	200	93.333336	-1	0	1	1	1	-1	1	0	12	1	3	150	150	50.0	1	1	200.0	0	0	0	0	0	0	0.0	0	0	0.0	0.0	0.0	0	0	0	0	0	0	0	0	0.0	0	0	0	0	0	-1.0	0	0	0	0	0
1	15	9	11	116	18	3	2	1	0	6	0	1	30	0	0	0	0	0	170	79.333336	1	-1	0	0	0	0	1	0	1	1	1	150	150	50.0	1	1	200.0	0	0	0	0	0	0	0.0	0	0	0.0	0.0	0.0	0	0	0	0	0	0	0	0	0.0	0	0	0	0	0	-1.0	0	0	0	0	2
1	15	10	13	131	18	1	2	3	0	1	1	1	10	10	10	10	20	90	50	33.333332	1	1	0	0	0	0	-1	0	5	1	3	150	150	50.0	1	1	200.0	0	0	0	0	0	0	0.0	0	0	0.0	0.0	0.0	0	0	0	0	0	0	0	0	0.0	0	0	0	0	0	-1.0	0	0	0	0	2
1	15	11	10	103	18	1	2	0	0	3	1	4	0	0	0	0	0	0	200	93.333336	1	0	1	1	1	-1	1	0	12	1	3	150	150	50.0	1	1	200.0	0	0	0	0	0	0	0.0	0	0	0.0	0.0	0.0	0	0	0	0	0	0	0	0	0.0	0	0	0	0	0	-1.0	0	0	0	1	0
1	15	12	10	106	18	1	2	0	0	6	1	4	0	0	0	0	0	0	200	93.333336	1	0	1	1	1	-1	1	0	12	1	3	150	150	50.0	1	1	200.0	0	0	0	0	0	0	0.0	0	0	0.0	0.0	0.0	0	0	0	0	0	0	0	0	0.0	0	0	0	0	0	-1.0	0	0	0	1	0
1	15	13	10	102	18	1	2	0	0	2	1	4	0	0	0	0	0	0	200	93.333336	1	0	1	1	1	-1	1	0	12	1	3	150	150	50.0	1	1	200.0	0	0	0	0	0	0	0.0	0	0	0.0	0.0	0.0	0	0	0	0	0	0	0	0	0.0	0	0	0	0	0	-1.0	0	0	0	0	0
1	15	14	13	136	18	1	2	3	1	6	1	1	10	10	10	10	20	90	50	113.333336	-1	1	0	0	0	0	-1	0	5	1	3	150	150	50.0	1	1	200.0	0	0	0	0	0	0	0.0	0	0	0.0	0.0	0.0	0	0	0	0	0	0	0	0	0.0	0	0	0	0	0	-1.0	0	0	0	0	0
1	15	15	13	134	18	1	2	3	0	4	1	1	10	10	10	10	20	90	50	33.333332	0	1	0	0	0	0	-1	0	5	1	3	150	150	50.0	1	1	200.0	0	0	0	0	0	0	0.0	0	0	0.0	0.0	0.0	0	0	0	0	0	0	0	0	0.0	0	0	0	0	0	-1.0	0	0	0	0	2
1	15	16	12	125	18	3	2	2	0	5	1	3	0	10	0	0	0	0	190	88.666664	0	1	-1	0	1	0	1	0	8	1	1	150	150	50.0	1	1	200.0	0	0	0	0	0	0	0.0	0	0	0.0	0.0	0.0	0	0	0	0	0	0	0	0	0.0	0	0	0	0	0	-1.0	0	0	0	1	0
1	15	17	11	114	18	3	2	1	0	4	0	1	30	0	0	0	0	0	170	79.333336	0	-1	0	0	0	0	1	0	1	1	1	150	150	50.0	1	1	200.0	0	0	0	0	0	0	0.0	0	0	0.0	0.0	0.0	0	0	0	0	0	0	0	0	0.0	0	0	0	0	0	-1.0	0	0	0	1	1
1	15	18	13	135	18	1	2	3	0	5	1	1	10	10	10	10	20	90	50	43.333332	0	1	0	0	0	0	-1	0	5	1	3	150	150	50.0	1	1	200.0	0	0	0	0	0	0	0.0	0	0	0.0	0.0	0.0	0	0	0	0	0	0	0	0	0.0	0	0	0	0	0	-1.0	0	0	0	1	0
1	15	19	13	133	18	1	2	3	0	3	1	1	10	10	10	10	20	90	50	33.333332	0	1	0	0	0	0	-1	0	5	1	3	150	150	50.0	1	1	200.0	0	0	0	0	0	0	0.0	0	0	0.0	0.0	0.0	0	0	0	0	0	0	0	0	0.0	0	0	0	0	0	-1.0	0	0	0	1	2
1	15	20	12	121	18	3	2	2	0	1	1	3	0	10	0	0	0	0	190	88.666664	1	1	-1	0	1	0	1	0	8	1	1	150	150	50.0	1	1	200.0	0	0	0	0	0	0	0.0	0	0	0.0	0.0	0.0	0	0	0	0	0	0	0	0	0.0	0	0	0	0	0	-1.0	0	0	0	0	0
1	15	21	12	126	18	3	2	2	0	6	1	3	0	10	0	0	0	0	190	88.666664	1	1	-1	0	1	0	1	0	8	1	1	150	150	50.0	1	1	200.0	0	0	0	0	0	0	0.0	0	0	0.0	0.0	0.0	0	0	0	0	0	0	0	0	0.0	0	0	0	0	0	-1.0	0	0	0	1	0
1	15	22	11	111	18	3	2	1	1	1	0	1	30	0	0	0	0	0	170	0.0	-1	-1	0	0	0	0	1	0	1	1	1	150	150	50.0	1	1	200.0	0	0	0	0	0	0	0.0	0	0	0.0	0.0	0.0	0	0	0	0	0	0	0	0	0.0	0	0	0	0	0	-1.0	0	0	0	1	0
1	15	23	11	115	18	3	2	1	0	5	0	1	30	0	0	0	0	0	170	79.333336	0	-1	0	0	0	0	1	0	1	1	1	150	150	50.0	1	1	200.0	0	0	0	0	0	0	0.0	0	0	0.0	0.0	0.0	0	0	0	0	0	0	0	0	0.0	0	0	0	0	0	-1.0	0	0	0	0	0
1	15	24	11	113	18	3	2	1	0	3	0	1	30	0	0	0	0	0	170	79.333336	0	-1	0	0	0	0	1	0	1	1	1	150	150	50.0	1	1	200.0	0	0	0	0	0	0	0.0	0	0	0.0	0.0	0.0	0	0	0	0	0	0	0	0	0.0	0	0	0	0	0	-1.0	0	0	0	1	0
1	16	1	11	112	18	3	2	1	0	2	0	0	0	0	0	0	0	0	0	0.0	0	0	0	0	-1	0	0	0	1	0	3	100	200	33.333332	0	1	0.0	0	0	0	0	0	0	3.0	0	164	0.0	0.0	0.0	0	1	0	0	0	0	0	0	0.0	0	1	0	0	0	0.0	0	0	0	0	2
1	16	2	13	132	18	1	2	3	0	2	0	0	10	10	10	10	10	100	50	33.333332	0	0	0	0	0	0	-1	0	6	1	1	150	150	50.0	1	1	200.0	0	0	0	0	0	0	0.0	0	0	0.0	0.0	0.0	0	0	0	0	0	0	0	0	0.0	0	0	0	0	0	-1.0	0	0	0	1	2
1	16	3	12	122	18	3	2	2	1	2	1	4	0	20	10	0	10	0	221	123.13333	-1	1	-1	1	1	0	1	0	9	0	3	200	100	66.666664	1	0	261.0	15	8	10	25	25	50	6.0	161	0	2.0	2.0	100.0	1	0	1	1	1	0	0	0	100.0	1	0	1	1	1	1.0	0	0	0	0	0
1	16	4	12	124	18	3	2	2	0	4	1	4	0	20	10	0	10	0	221	103.13333	1	1	-1	1	1	0	1	0	9	0	3	200	100	66.666664	1	0	261.0	0	0	0	0	0	0	6.0	164	0	0.0	0.0	100.0	1	0	0	0	0	0	0	0	100.0	1	0	0	0	0	1.0	0	0	0	0	0
1	16	5	10	104	18	1	2	0	0	4	0	0	0	0	0	0	200	0	0	0.0	0	0	0	0	0	-1	0	0	13	1	1	150	150	50.0	1	1	200.0	0	0	0	0	0	0	0.0	0	0	0.0	0.0	0.0	0	0	0	0	0	0	0	0	0.0	0	0	0	0	0	-1.0	0	0	0	0	1
1	16	6	12	123	18	3	2	2	0	3	1	4	0	20	10	0	10	0	221	113.13333	1	1	-1	1	1	0	1	0	9	0	3	200	100	66.666664	1	0	261.0	0	0	0	0	0	0	6.0	164	0	0.0	0.0	100.0	1	0	0	0	0	0	0	0	100.0	1	0	0	0	0	1.0	0	0	0	1	2
1	16	7	10	101	18	1	2	0	0	1	0	0	0	0	0	0	200	0	0	0.0	0	0	0	0	0	-1	0	0	13	1	1	150	150	50.0	1	1	200.0	0	0	0	0	0	0	0.0	0	0	0.0	0.0	0.0	0	0	0	0	0	0	0	0	0.0	0	0	0	0	0	-1.0	0	0	0	1	0
1	16	8	10	105	18	1	2	0	1	5	0	0	0	0	0	0	200	0	0	0.0	-1	0	0	0	0	-1	0	0	13	1	1	150	150	50.0	1	1	200.0	0	0	0	0	0	0	0.0	0	0	0.0	0.0	0.0	0	0	0	0	0	0	0	0	0.0	0	0	0	0	0	-1.0	0	0	0	0	0
1	16	9	11	116	18	3	2	1	0	6	0	0	0	0	0	0	0	0	0	0.0	0	0	0	0	-1	0	0	0	1	0	3	100	200	33.333332	0	1	0.0	0	0	0	0	0	0	3.0	0	164	0.0	0.0	0.0	0	1	0	0	0	0	0	0	0.0	0	1	0	0	0	0.0	0	0	0	0	2
1	16	10	13	131	18	1	2	3	0	1	0	0	10	10	10	10	10	100	50	33.333332	0	0	0	0	0	0	-1	0	6	1	1	150	150	50.0	1	1	200.0	0	0	0	0	0	0	0.0	0	0	0.0	0.0	0.0	0	0	0	0	0	0	0	0	0.0	0	0	0	0	0	-1.0	0	0	0	0	2
1	16	11	10	103	18	1	2	0	0	3	0	0	0	0	0	0	200	0	0	0.0	0	0	0	0	0	-1	0	0	13	1	1	150	150	50.0	1	1	200.0	0	0	0	0	0	0	0.0	0	0	0.0	0.0	0.0	0	0	0	0	0	0	0	0	0.0	0	0	0	0	0	-1.0	0	0	0	1	0
1	16	12	10	106	18	1	2	0	0	6	0	0	0	0	0	0	200	0	0	0.0	0	0	0	0	0	-1	0	0	13	1	1	150	150	50.0	1	1	200.0	0	0	0	0	0	0	0.0	0	0	0.0	0.0	0.0	0	0	0	0	0	0	0	0	0.0	0	0	0	0	0	-1.0	0	0	0	1	0
1	16	13	10	102	18	1	2	0	0	2	0	0	0	0	0	0	200	0	0	0.0	0	0	0	0	0	-1	0	0	13	1	1	150	150	50.0	1	1	200.0	0	0	0	0	0	0	0.0	0	0	0.0	0.0	0.0	0	0	0	0	0	0	0	0	0.0	0	0	0	0	0	-1.0	0	0	0	0	0
1	16	14	13	136	18	1	2	3	1	6	0	0	10	10	10	10	10	100	50	0.0	-1	0	0	0	0	0	-1	0	6	1	1	150	150	50.0	1	1	200.0	0	0	0	0	0	0	0.0	0	0	0.0	0.0	0.0	0	0	0	0	0	0	0	0	0.0	0	0	0	0	0	-1.0	0	0	0	0	0
1	16	15	13	134	18	1	2	3	0	4	0	0	10	10	10	10	10	100	50	33.333332	0	0	0	0	0	0	-1	0	6	1	1	150	150	50.0	1	1	200.0	0	0	0	0	0	0	0.0	0	0	0.0	0.0	0.0	0	0	0	0	0	0	0	0	0.0	0	0	0	0	0	-1.0	0	0	0	0	2
1	16	16	12	125	18	3	2	2	0	5	1	4	0	20	10	0	10	0	221	113.13333	0	1	-1	1	1	0	1	0	9	0	3	200	100	66.666664	1	0	261.0	0	0	0	0	0	0	6.0	164	0	0.0	0.0	100.0	1	0	0	0	0	0	0	0	100.0	1	0	0	0	0	1.0	0	0	0	1	0
1	16	17	11	114	18	3	2	1	1	4	0	0	0	0	0	0	0	0	0	0.0	-1	0	0	0	-1	0	0	0	1	0	3	100	200	33.333332	0	1	0.0	25	25	50	15	8	10	3.0	0	161	2.0	2.0	0.0	0	1	0	0	0	1	1	1	0.0	0	1	0	0	0	0.0	1	1	1	1	1
1	16	18	13	135	18	1	2	3	0	5	0	0	10	10	10	10	10	100	50	33.333332	0	0	0	0	0	0	-1	0	6	1	1	150	150	50.0	1	1	200.0	0	0	0	0	0	0	0.0	0	0	0.0	0.0	0.0	0	0	0	0	0	0	0	0	0.0	0	0	0	0	0	-1.0	0	0	0	1	0
1	16	19	13	133	18	1	2	3	0	3	0	0	10	10	10	10	10	100	50	33.333332	0	0	0	0	0	0	-1	0	6	1	1	150	150	50.0	1	1	79.0	0	0	0	0	0	0	0.0	0	0	0.0	0.0	0.0	0	0	0	0	0	0	0	0	0.0	0	0	0	0	0	-1.0	0	0	0	1	2
1	16	20	12	121	18	3	2	2	0	1	1	4	0	20	10	0	10	0	221	103.13333	1	1	-1	1	1	0	1	0	9	0	3	200	100	66.666664	1	0	261.0	0	0	0	0	0	0	6.0	164	0	0.0	0.0	100.0	1	0	0	0	0	0	0	0	100.0	1	0	0	0	0	1.0	0	0	0	0	0
1	16	21	12	126	18	3	2	2	0	6	1	4	0	20	10	0	10	0	221	103.13333	1	1	-1	1	1	0	1	0	9	0	3	200	100	66.666664	1	0	261.0	0	0	0	0	0	0	6.0	164	0	0.0	0.0	100.0	1	0	0	0	0	0	0	0	100.0	1	0	0	0	0	1.0	0	0	0	1	0
1	16	22	11	111	18	3	2	1	0	1	0	0	0	0	0	0	0	0	0	0.0	0	0	0	0	-1	0	0	0	1	0	3	100	200	33.333332	0	1	0.0	0	0	0	0	0	0	3.0	0	164	0.0	0.0	0.0	0	1	0	0	0	0	0	0	0.0	0	1	0	0	0	0.0	0	0	0	1	0
1	16	23	11	115	18	3	2	1	0	5	0	0	0	0	0	0	0	0	0	0.0	0	0	0	0	-1	0	0	0	1	0	3	100	200	33.333332	0	1	0.0	0	0	0	0	0	0	3.0	0	164	0.0	0.0	0.0	0	1	0	0	0	0	0	0	0.0	0	1	0	0	0	0.0	0	0	0	0	0
1	16	24	11	113	18	3	2	1	0	3	0	0	0	0	0	0	0	0	0	0.0	0	0	0	0	-1	0	0	0	1	0	3	100	200	33.333332	0	1	0.0	0	0	0	0	0	0	3.0	0	164	0.0	0.0	0.0	0	1	0	0	0	0	0	0	0.0	0	1	0	0	0	0.0	0	0	0	1	0
1	17	1	11	112	18	3	2	1	0	2	1	3	0	0	0	0	36	0	100	46.666668	1	1	1	0	0	-1	1	0	1	0	1	150	150	50.0	0	1	136.0	0	0	0	0	0	0	6.0	36	79	-1.0	2.0	44.893112	0	1	0	0	0	0	0	0	44.75138	0	1	0	0	0	1.0	0	0	0	0	2
1	17	2	13	132	18	1	2	3	0	2	0	0	0	0	79	0	0	0	0	0.0	0	0	0	0	-1	0	0	0	1	0	3	150	150	50.0	1	0	79.0	0	0	0	0	0	0	0.0	79	36	2.0	-1.0	55.106888	1	0	0	0	0	0	0	0	55.24862	1	0	0	0	0	0.0	0	0	0	1	2
1	17	3	12	122	18	3	2	2	1	2	1	4	0	9	0	0	0	0	200	102.333336	-1	1	-1	1	1	0	1	0	10	0	1	200	100	66.666664	0	1	209.0	8	8	8	10	10	0	6.0	109	60	-1.0	2.0	74.576225	1	0	12	12	12	10	0	10	87.5	0	1	15	15	1	1.0	0	0	0	0	0
1	17	4	12	124	18	3	2	2	0	4	1	4	0	9	0	0	0	0	200	93.333336	1	1	-1	1	1	0	1	0	10	0	1	200	100	66.666664	0	1	209.0	0	0	0	0	0	0	6.0	109	60	-1.0	2.0	74.576225	1	0	0	0	0	0	0	0	87.5	0	1	0	0	0	1.0	0	0	0	0	0
1	17	5	10	104	18	1	2	0	1	4	1	1	20	0	0	40	0	0	0	40.0	-1	1	0	0	-1	0	0	0	1	0	3	100	200	33.333332	1	0	60.0	10	10	0	8	8	8	3.0	60	109	2.0	-1.0	25.423773	0	1	10	0	10	12	12	12	12.5	1	0	0	0	0	0.0	15	15	1	0	1
1	17	6	12	123	18	3	2	2	0	3	1	4	0	9	0	0	0	0	200	93.333336	1	1	-1	1	1	0	1	0	10	0	1	200	100	66.666664	0	1	209.0	0	0	0	0	0	0	6.0	109	60	-1.0	2.0	74.576225	1	0	0	0	0	0	0	0	87.5	0	1	0	0	0	1.0	0	0	0	1	2
1	17	7	10	101	18	1	2	0	0	1	1	1	20	0	0	40	0	0	0	20.0	1	1	0	0	-1	0	0	0	1	0	3	100	200	33.333332	1	0	60.0	0	0	0	0	0	0	0.0	60	109	0.0	0.0	0.0	0	1	0	0	0	0	0	0	12.5	1	0	0	0	0	0.0	0	0	0	1	0
1	17	8	10	105	18	1	2	0	0	5	1	1	20	0	0	40	0	0	0	0.0	0	1	0	0	-1	0	0	0	1	0	3	100	200	33.333332	1	0	60.0	0	0	0	0	0	0	0.0	60	109	0.0	0.0	0.0	0	1	0	0	0	0	0	0	12.5	1	0	0	0	0	0.0	0	0	0	0	0
1	17	9	11	116	18	3	2	1	0	6	1	3	0	0	0	0	36	0	100	46.666668	1	1	1	0	0	-1	1	0	1	0	1	150	150	50.0	0	1	136.0	0	0	0	0	0	0	6.0	36	79	-1.0	2.0	44.893112	0	1	0	0	0	0	0	0	44.75138	0	1	0	0	0	1.0	0	0	0	0	2
1	17	10	13	131	18	1	2	3	0	1	0	0	0	0	79	0	0	0	0	0.0	0	0	0	0	-1	0	0	0	1	0	3	150	150	50.0	1	0	79.0	0	0	0	0	0	0	0.0	79	36	2.0	-1.0	55.106888	1	0	0	0	0	0	0	0	55.24862	1	0	0	0	0	0.0	0	0	0	0	2
1	17	11	10	103	18	1	2	0	0	3	1	1	20	0	0	40	0	0	0	0.0	0	1	0	0	-1	0	0	0	1	0	3	100	200	33.333332	1	0	60.0	0	0	0	0	0	0	0.0	60	109	0.0	0.0	0.0	0	1	0	0	0	0	0	0	12.5	1	0	0	0	0	0.0	0	0	0	1	0
1	17	12	10	106	18	1	2	0	0	6	1	1	20	0	0	40	0	0	0	0.0	0	1	0	0	-1	0	0	0	1	0	3	100	200	33.333332	1	0	60.0	0	0	0	0	0	0	0.0	60	109	0.0	0.0	0.0	0	1	0	0	0	0	0	0	12.5	1	0	0	0	0	0.0	0	0	0	1	0
1	17	13	10	102	18	1	2	0	0	2	1	1	20	0	0	40	0	0	0	0.0	0	1	0	0	-1	0	0	0	1	0	3	100	200	33.333332	1	0	60.0	0	0	0	0	0	0	0.0	60	109	0.0	0.0	0.0	0	1	0	0	0	0	0	0	12.5	1	0	0	0	0	0.0	0	0	0	0	0
1	17	14	13	136	18	1	2	3	0	6	0	0	0	0	79	0	0	0	0	0.0	0	0	0	0	-1	0	0	0	1	0	3	150	150	50.0	1	0	79.0	0	0	0	0	0	0	0.0	79	36	2.0	-1.0	55.106888	1	0	0	0	0	0	0	0	55.24862	1	0	0	0	0	0.0	0	0	0	0	0
1	17	15	13	134	18	1	2	3	0	4	0	0	0	0	79	0	0	0	0	0.0	0	0	0	0	-1	0	0	0	1	0	3	150	150	50.0	1	0	79.0	0	0	0	0	0	0	0.0	79	36	2.0	-1.0	55.106888	1	0	0	0	0	0	0	0	55.24862	1	0	0	0	0	0.0	0	0	0	0	2
1	17	16	12	125	18	3	2	2	0	5	1	4	0	9	0	0	0	0	200	93.333336	0	1	-1	1	1	0	1	0	10	0	1	200	100	66.666664	0	1	209.0	0	0	0	0	0	0	6.0	109	60	-1.0	2.0	74.576225	1	0	0	0	0	0	0	0	87.5	0	1	0	0	0	1.0	0	0	0	1	0
1	17	17	11	114	18	3	2	1	0	4	1	3	0	0	0	0	36	0	100	46.666668	0	1	1	0	0	-1	1	0	1	0	1	150	150	50.0	0	1	136.0	25	25	50	15	8	10	6.0	36	79	-1.0	2.0	44.893112	0	1	0	0	0	1	1	1	44.75138	0	1	0	0	0	1.0	1	1	1	1	1
1	17	18	13	135	18	1	2	3	0	5	0	0	0	0	79	0	0	0	0	0.0	0	0	0	0	-1	0	0	0	1	0	3	150	150	50.0	1	0	79.0	0	0	0	0	0	0	0.0	79	36	2.0	-1.0	55.106888	1	0	0	0	0	0	0	0	55.24862	1	0	0	0	0	0.0	0	0	0	1	0
1	17	19	13	133	18	1	2	3	1	3	0	0	0	0	79	0	0	0	0	0.0	-1	0	0	0	-1	0	0	0	1	0	3	150	150	50.0	1	0	79.0	13	13	8	7	8	9	3.0	79	36	2.0	-1.0	55.106888	1	0	0	13	13	10	15	10	55.24862	1	0	10	10	1	0.0	20	5	20	1	2
1	17	20	12	121	18	3	2	2	0	1	1	4	0	9	0	0	0	0	200	93.333336	1	1	-1	1	1	0	1	0	10	0	1	200	100	66.666664	0	1	209.0	0	0	0	0	0	0	6.0	109	60	-1.0	2.0	74.576225	1	0	0	0	0	0	0	0	87.5	0	1	0	0	0	1.0	0	0	0	0	0
1	17	21	12	126	18	3	2	2	0	6	1	4	0	9	0	0	0	0	200	93.333336	1	1	-1	1	1	0	1	0	10	0	1	200	100	66.666664	0	1	209.0	0	0	0	0	0	0	6.0	109	60	-1.0	2.0	74.576225	1	0	0	0	0	0	0	0	87.5	0	1	0	0	0	1.0	0	0	0	1	0
1	17	22	11	111	18	3	2	1	0	1	1	3	0	0	0	0	36	0	100	46.666668	1	1	1	0	0	-1	1	0	1	0	1	150	150	50.0	0	1	136.0	0	0	0	0	0	0	6.0	36	79	-1.0	2.0	44.893112	0	1	0	0	0	0	0	0	44.75138	0	1	0	0	0	1.0	0	0	0	1	0
1	17	23	11	115	18	3	2	1	1	5	1	3	0	0	0	0	36	0	100	82.666664	-1	1	1	0	0	-1	1	0	1	0	1	150	150	50.0	0	1	136.0	7	8	9	13	13	8	6.0	36	79	-1.0	2.0	44.893112	0	1	10	15	10	0	13	13	44.75138	0	1	20	5	20	1.0	10	10	1	0	0
1	17	24	11	113	18	3	2	1	0	3	1	3	0	0	0	0	36	0	100	46.666668	0	1	1	0	0	-1	1	0	1	0	1	150	150	50.0	0	1	136.0	0	0	0	0	0	0	6.0	36	79	-1.0	2.0	44.893112	0	1	0	0	0	0	0	0	44.75138	0	1	0	0	0	1.0	0	0	0	1	0
1	18	1	11	112	18	3	2	1	0	2	1	3	0	0	0	0	33	0	100	46.666668	1	1	1	0	0	-1	1	0	2	1	3	100	200	33.333332	1	1	133.33333	0	0	0	0	0	0	0.0	0	0	0.0	0.0	0.0	0	0	0	0	0	0	0	0	0.0	0	0	0	0	0	-1.0	0	0	0	0	2
1	18	2	13	132	18	1	2	3	0	2	1	2	100	0	0	0	0	0	50	23.333334	0	-1	0	0	0	1	1	0	1	1	1	150	150	50.0	1	1	200.0	0	0	0	0	0	0	0.0	0	0	0.0	0.0	0.0	0	0	0	0	0	0	0	0	0.0	0	0	0	0	0	-1.0	0	0	0	1	2
1	18	3	12	122	18	3	2	2	1	2	1	4	0	16	0	0	0	0	250	132.66667	-1	1	-1	1	1	0	1	0	11	1	3	200	100	66.666664	1	1	266.66666	0	0	0	0	0	0	0.0	0	0	0.0	0.0	0.0	0	0	0	0	0	0	0	0	0.0	0	0	0	0	0	-1.0	0	0	0	0	0
1	18	4	12	124	18	3	2	2	0	4	1	4	0	16	0	0	0	0	250	116.666664	1	1	-1	1	1	0	1	0	11	1	3	200	100	66.666664	1	1	266.66666	0	0	0	0	0	0	0.0	0	0	0.0	0.0	0.0	0	0	0	0	0	0	0	0	0.0	0	0	0	0	0	-1.0	0	0	0	0	0
1	18	5	10	104	18	1	2	0	1	4	1	1	40	0	0	160	0	0	0	160.0	-1	1	0	0	-1	0	0	0	2	1	1	150	150	50.0	1	1	200.0	0	0	0	0	0	0	0.0	0	0	0.0	0.0	0.0	0	0	0	0	0	0	0	0	0.0	0	0	0	0	0	-1.0	0	0	0	0	1
1	18	6	12	123	18	3	2	2	0	3	1	4	0	16	0	0	0	0	250	116.666664	1	1	-1	1	1	0	1	0	11	1	3	200	100	66.666664	1	1	266.66666	0	0	0	0	0	0	0.0	0	0	0.0	0.0	0.0	0	0	0	0	0	0	0	0	0.0	0	0	0	0	0	-1.0	0	0	0	1	2
1	18	7	10	101	18	1	2	0	0	1	1	1	40	0	0	160	0	0	0	40.0	1	1	0	0	-1	0	0	0	2	1	1	150	150	50.0	1	1	200.0	0	0	0	0	0	0	0.0	0	0	0.0	0.0	0.0	0	0	0	0	0	0	0	0	0.0	0	0	0	0	0	-1.0	0	0	0	1	0
1	18	8	10	105	18	1	2	0	0	5	1	1	40	0	0	160	0	0	0	0.0	0	1	0	0	-1	0	0	0	2	1	1	150	150	50.0	1	1	200.0	0	0	0	0	0	0	0.0	0	0	0.0	0.0	0.0	0	0	0	0	0	0	0	0	0.0	0	0	0	0	0	-1.0	0	0	0	0	0
1	18	9	11	116	18	3	2	1	0	6	1	3	0	0	0	0	33	0	100	46.666668	1	1	1	0	0	-1	1	0	2	1	3	100	200	33.333332	1	1	133.33333	0	0	0	0	0	0	0.0	0	0	0.0	0.0	0.0	0	0	0	0	0	0	0	0	0.0	0	0	0	0	0	-1.0	0	0	0	0	2
1	18	10	13	131	18	1	2	3	1	1	1	2	100	0	0	0	0	0	50	123.333336	-1	-1	0	0	0	1	1	0	1	1	1	150	150	50.0	1	1	200.0	0	0	0	0	0	0	0.0	0	0	0.0	0.0	0.0	0	0	0	0	0	0	0	0	0.0	0	0	0	0	0	-1.0	0	0	0	0	2
1	18	11	10	103	18	1	2	0	0	3	1	1	40	0	0	160	0	0	0	0.0	0	1	0	0	-1	0	0	0	2	1	1	150	150	50.0	1	1	200.0	0	0	0	0	0	0	0.0	0	0	0.0	0.0	0.0	0	0	0	0	0	0	0	0	0.0	0	0	0	0	0	-1.0	0	0	0	1	0
1	18	12	10	106	18	1	2	0	0	6	1	1	40	0	0	160	0	0	0	0.0	0	1	0	0	-1	0	0	0	2	1	1	150	150	50.0	1	1	200.0	0	0	0	0	0	0	0.0	0	0	0.0	0.0	0.0	0	0	0	0	0	0	0	0	0.0	0	0	0	0	0	-1.0	0	0	0	1	0
1	18	13	10	102	18	1	2	0	0	2	1	1	40	0	0	160	0	0	0	0.0	0	1	0	0	-1	0	0	0	2	1	1	150	150	50.0	1	1	200.0	0	0	0	0	0	0	0.0	0	0	0.0	0.0	0.0	0	0	0	0	0	0	0	0	0.0	0	0	0	0	0	-1.0	0	0	0	0	0
1	18	14	13	136	18	1	2	3	0	6	1	2	100	0	0	0	0	0	50	23.333334	1	-1	0	0	0	1	1	0	1	1	1	150	150	50.0	1	1	200.0	0	0	0	0	0	0	0.0	0	0	0.0	0.0	0.0	0	0	0	0	0	0	0	0	0.0	0	0	0	0	0	-1.0	0	0	0	0	0
1	18	15	13	134	18	1	2	3	0	4	1	2	100	0	0	0	0	0	50	23.333334	0	-1	0	0	0	1	1	0	1	1	1	150	150	50.0	1	1	200.0	0	0	0	0	0	0	0.0	0	0	0.0	0.0	0.0	0	0	0	0	0	0	0	0	0.0	0	0	0	0	0	-1.0	0	0	0	0	2
1	18	16	12	125	18	3	2	2	0	5	1	4	0	16	0	0	0	0	250	116.666664	0	1	-1	1	1	0	1	0	11	1	3	200	100	66.666664	1	1	266.66666	0	0	0	0	0	0	0.0	0	0	0.0	0.0	0.0	0	0	0	0	0	0	0	0	0.0	0	0	0	0	0	-1.0	0	0	0	1	0
1	18	17	11	114	18	3	2	1	0	4	1	3	0	0	0	0	33	0	100	79.666664	0	1	1	0	0	-1	1	0	2	1	3	100	200	33.333332	1	1	133.33333	0	0	0	0	0	0	0.0	0	0	0.0	0.0	0.0	0	0	0	0	0	0	0	0	0.0	0	0	0	0	0	-1.0	0	0	0	1	1
1	18	18	13	135	18	1	2	3	0	5	1	2	100	0	0	0	0	0	50	23.333334	1	-1	0	0	0	1	1	0	1	1	1	150	150	50.0	1	1	200.0	0	0	0	0	0	0	0.0	0	0	0.0	0.0	0.0	0	0	0	0	0	0	0	0	0.0	0	0	0	0	0	-1.0	0	0	0	1	0
1	18	19	13	133	18	1	2	3	0	3	1	2	100	0	0	0	0	0	50	23.333334	0	-1	0	0	0	1	1	0	1	1	1	150	150	50.0	1	1	200.0	0	0	0	0	0	0	0.0	0	0	0.0	0.0	0.0	0	0	0	0	0	0	0	0	0.0	0	0	0	0	0	-1.0	0	0	0	1	2
1	18	20	12	121	18	3	2	2	0	1	1	4	0	16	0	0	0	0	250	116.666664	1	1	-1	1	1	0	1	0	11	1	3	200	100	66.666664	1	1	266.66666	0	0	0	0	0	0	0.0	0	0	0.0	0.0	0.0	0	0	0	0	0	0	0	0	0.0	0	0	0	0	0	-1.0	0	0	0	0	0
1	18	21	12	126	18	3	2	2	0	6	1	4	0	16	0	0	0	0	250	116.666664	1	1	-1	1	1	0	1	0	11	1	3	200	100	66.666664	1	1	266.66666	0	0	0	0	0	0	0.0	0	0	0.0	0.0	0.0	0	0	0	0	0	0	0	0	0.0	0	0	0	0	0	-1.0	0	0	0	1	0
1	18	22	11	111	18	3	2	1	0	1	1	3	0	0	0	0	33	0	100	46.666668	1	1	1	0	0	-1	1	0	2	1	3	100	200	33.333332	1	1	133.33333	0	0	0	0	0	0	0.0	0	0	0.0	0.0	0.0	0	0	0	0	0	0	0	0	0.0	0	0	0	0	0	-1.0	0	0	0	1	0
1	18	23	11	115	18	3	2	1	1	5	1	3	0	0	0	0	33	0	100	46.666668	-1	1	1	0	0	-1	1	0	2	1	3	100	200	33.333332	1	1	133.33333	0	0	0	0	0	0	0.0	0	0	0.0	0.0	0.0	0	0	0	0	0	0	0	0	0.0	0	0	0	0	0	-1.0	0	0	0	0	0
1	18	24	11	113	18	3	2	1	0	3	1	3	0	0	0	0	33	0	100	46.666668	0	1	1	0	0	-1	1	0	2	1	3	100	200	33.333332	1	1	133.33333	0	0	0	0	0	0	0.0	0	0	0.0	0.0	0.0	0	0	0	0	0	0	0	0	0.0	0	0	0	0	0	-1.0	0	0	0	1	0
2	1	1	21	211	18	3	2	1	1	1	0	0	0	0	0	0	0	0	100	46.666668	-1	-1	0	0	0	0	0	0	1	0	3	200	100	66.666664	1	0	237.0	0	0	0	30	25	20	6.0	137	1	2.0	2.0	76.190475	0	0	15	15	15	10	6	4	96.875	1	0	6	6	6	1.0	2	1	1	1	0
2	1	2	20	206	18	1	2	0	0	6	1	1	40	0	0	0	0	0	100	46.666668	0	-1	0	0	0	1	0	0	1	0	1	150	150	50.0	1	0	100.0	0	0	0	0	0	0	7.5	45	90	0.0	0.0	50.0	1	0	0	0	0	0	0	0	77.77778	1	0	0	0	0	1.0	0	0	0	1	0
2	1	3	23	232	18	3	2	3	0	2	0	0	0	0	0	0	0	0	1	0.46666667	0	-1	0	0	0	0	0	0	1	0	3	100	200	33.333332	0	1	1.0	0	0	0	0	0	0	3.0	5	155	0.0	0.0	23.809525	0	0	0	0	0	0	0	0	3.125	0	1	0	0	0	0.0	0	0	0	1	0
2	1	4	21	215	18	3	2	1	0	5	0	0	0	0	0	0	0	0	100	46.666668	0	-1	0	0	0	0	0	0	1	0	3	200	100	66.666664	1	0	237.0	0	0	0	0	0	0	6.0	155	5	0.0	0.0	76.190475	0	0	0	0	0	0	0	0	96.875	1	0	0	0	0	1.0	0	0	0	1	0
2	1	5	22	222	18	1	2	2	0	2	1	1	0	0	0	0	0	0	90	42.0	0	-1	0	0	0	1	0	0	1	0	1	150	150	50.0	0	1	90.0	0	0	0	0	0	0	1.5	90	45	0.0	0.0	50.0	0	1	0	0	0	0	0	0	22.222221	0	1	0	0	0	0.0	0	0	0	0	1
2	1	6	23	231	18	3	2	3	1	1	0	0	0	0	0	0	0	0	1	0.0	-1	-1	0	0	0	0	0	0	1	0	3	100	200	33.333332	0	1	1.0	30	25	20	0	0	0	3.0	1	137	2.0	2.0	23.809525	0	0	10	6	4	15	15	15	3.125	0	1	2	1	1	0.0	6	6	6	0	0
2	1	7	20	204	18	1	2	0	0	4	1	1	40	0	0	0	0	0	60	28.0	0	-1	0	0	0	1	0	0	1	0	1	150	150	50.0	1	0	100.0	0	0	0	0	0	0	7.5	45	90	0.0	0.0	50.0	1	0	0	0	0	0	0	0	77.77778	1	0	0	0	0	1.0	0	0	0	0	1
2	1	8	20	201	18	1	2	0	1	1	1	1	40	0	0	0	0	0	60	68.0	-1	-1	0	0	0	1	0	0	1	0	1	150	150	50.0	1	0	100.0	0	0	0	0	0	0	7.5	0	90	0.5	3.5	50.0	1	0	35	25	45	20	20	20	77.77778	1	0	20	15	10	1.0	0	0	0	0	2
2	1	9	20	202	18	1	2	0	0	2	1	1	40	0	0	0	0	0	60	28.0	0	-1	0	0	0	1	0	0	1	0	1	150	150	50.0	1	0	100.0	0	0	0	0	0	0	7.5	45	90	0.0	0.0	50.0	1	0	0	0	0	0	0	0	77.77778	1	0	0	0	0	1.0	0	0	0	1	2
2	1	10	21	216	18	3	2	1	0	6	0	0	0	0	0	0	0	0	0	0.0	0	-1	0	0	0	0	0	0	1	0	3	200	100	66.666664	1	0	237.0	0	0	0	0	0	0	6.0	155	5	0.0	0.0	76.190475	0	0	0	0	0	0	0	0	96.875	1	0	0	0	0	1.0	0	0	0	1	0
2	1	11	22	226	18	1	2	2	0	6	1	1	0	0	0	0	0	0	90	42.0	0	-1	0	0	0	1	0	0	1	0	1	150	150	50.0	0	1	90.0	0	0	0	0	0	0	1.5	90	45	0.0	0.0	50.0	0	1	0	0	0	0	0	0	22.222221	0	1	0	0	0	0.0	0	0	0	0	0
2	1	12	21	214	18	3	2	1	0	4	0	0	0	0	0	0	0	0	0	0.0	0	-1	0	0	0	0	0	0	1	0	3	200	100	66.666664	1	0	237.0	0	0	0	0	0	0	6.0	155	5	0.0	0.0	76.190475	0	0	0	0	0	0	0	0	96.875	1	0	0	0	0	1.0	0	0	0	0	1
2	1	13	20	203	18	1	2	0	0	3	1	1	40	0	0	0	0	0	60	28.0	0	-1	0	0	0	1	0	0	1	0	1	150	150	50.0	1	0	100.0	0	0	0	0	0	0	7.5	45	90	0.0	0.0	50.0	1	0	0	0	0	0	0	0	77.77778	1	0	0	0	0	1.0	0	0	0	0	0
2	1	14	22	225	18	1	2	2	0	5	1	1	0	0	0	0	0	0	90	42.0	1	-1	0	0	0	1	0	0	1	0	1	150	150	50.0	0	1	90.0	0	0	0	0	0	0	1.5	90	45	0.0	0.0	50.0	0	1	0	0	0	0	0	0	22.222221	0	1	0	0	0	0.0	0	0	0	0	0
2	1	15	23	234	18	3	2	3	0	4	0	0	0	0	0	0	0	0	1	0.46666667	0	-1	0	0	0	0	0	0	1	0	3	100	200	33.333332	0	1	1.0	0	0	0	0	0	0	3.0	5	155	0.0	0.0	23.809525	0	0	0	0	0	0	0	0	3.125	0	1	0	0	0	0.0	0	0	0	1	0
2	1	16	21	213	18	3	2	1	0	3	0	0	0	0	0	0	0	0	0	0.0	0	-1	0	0	0	0	0	0	1	0	3	200	100	66.666664	1	0	237.0	0	0	0	0	0	0	6.0	155	5	0.0	0.0	76.190475	0	0	0	0	0	0	0	0	96.875	1	0	0	0	0	1.0	0	0	0	1	0
2	1	17	23	233	18	3	2	3	0	3	0	0	0	0	0	0	0	0	1	0.46666667	0	-1	0	0	0	0	0	0	1	0	3	100	200	33.333332	0	1	1.0	0	0	0	0	0	0	3.0	5	155	0.0	0.0	23.809525	0	0	0	0	0	0	0	0	3.125	0	1	0	0	0	0.0	0	0	0	0	0
2	1	18	22	221	18	1	2	2	1	1	1	1	0	0	0	0	0	0	90	42.0	-1	-1	0	0	0	1	0	0	1	0	1	150	150	50.0	0	1	90.0	0	0	0	0	0	0	1.5	90	0	3.5	0.5	50.0	0	1	20	20	20	35	25	45	22.222221	0	1	0	0	0	0.0	20	15	10	1	0
2	1	19	23	235	18	3	2	3	0	5	0	0	0	0	0	0	0	0	1	0.46666667	0	-1	0	0	0	0	0	0	1	0	3	100	200	33.333332	0	1	1.0	0	0	0	0	0	0	3.0	5	155	0.0	0.0	23.809525	0	0	0	0	0	0	0	0	3.125	0	1	0	0	0	0.0	0	0	0	1	1
2	1	20	23	236	18	3	2	3	0	6	0	0	0	0	0	0	0	0	1	0.46666667	0	-1	0	0	0	0	0	0	1	0	3	100	200	33.333332	0	1	1.0	0	0	0	0	0	0	3.0	5	155	0.0	0.0	23.809525	0	0	0	0	0	0	0	0	3.125	0	1	0	0	0	0.0	0	0	0	1	0
2	1	21	22	224	18	1	2	2	0	4	1	1	0	0	0	0	0	0	90	42.0	0	-1	0	0	0	1	0	0	1	0	1	150	150	50.0	0	1	90.0	0	0	0	0	0	0	1.5	90	45	0.0	0.0	50.0	0	1	0	0	0	0	0	0	22.222221	0	1	0	0	0	0.0	0	0	0	0	0
2	1	22	21	212	18	3	2	1	0	2	0	0	0	0	0	0	0	0	0	0.0	0	-1	0	0	0	0	0	0	1	0	3	200	100	66.666664	1	0	237.0	0	0	0	0	0	0	6.0	155	5	0.0	0.0	76.190475	0	0	0	0	0	0	0	0	96.875	1	0	0	0	0	1.0	0	0	0	1	0
2	1	23	20	205	18	1	2	0	0	5	1	1	40	0	0	0	0	0	60	28.0	1	-1	0	0	0	1	0	0	1	0	1	150	150	50.0	1	0	100.0	0	0	0	0	0	0	7.5	45	90	0.0	0.0	50.0	1	0	0	0	0	0	0	0	77.77778	1	0	0	0	0	1.0	0	0	0	0	0
2	1	24	22	223	18	1	2	2	0	3	1	1	0	0	0	0	0	0	90	42.0	0	-1	0	0	0	1	0	0	1	0	1	150	150	50.0	0	1	90.0	0	0	0	0	0	0	1.5	90	45	0.0	0.0	50.0	0	1	0	0	0	0	0	0	22.222221	0	1	0	0	0	0.0	0	0	0	0	0
2	2	1	21	211	20	3	2	1	0	1	0	1	0	0	0	0	0	0	30	14.0	0	0	1	0	-1	0	0	0	1	1	1	200	100	66.666664	1	1	266.66666	0	0	0	0	0	0	0.0	0	0	0.0	0.0	0.0	0	0	0	0	0	0	0	0	0.0	0	0	0	0	0	-1.0	0	0	0	1	0
2	2	2	20	206	20	1	2	0	0	6	1	1	80	0	0	0	0	0	120	56.0	0	-1	0	1	0	0	0	0	2	1	3	150	150	50.0	1	1	200.0	0	0	0	0	0	0	0.0	0	0	0.0	0.0	0.0	0	0	0	0	0	0	0	0	0.0	0	0	0	0	0	-1.0	0	0	0	1	0
2	2	3	23	232	20	3	2	3	1	2	1	3	0	50	0	0	0	0	50	73.333336	-1	0	-1	1	1	0	1	0	1	1	1	150	150	50.0	1	1	200.0	0	0	0	0	0	0	0.0	0	0	0.0	0.0	0.0	0	0	0	0	0	0	0	0	0.0	0	0	0	0	0	-1.0	0	0	0	1	0
2	2	4	21	215	20	3	2	1	0	5	0	1	0	0	0	0	0	0	30	14.0	0	0	1	0	-1	0	0	0	1	1	1	200	100	66.666664	1	1	266.66666	0	0	0	0	0	0	0.0	0	0	0.0	0.0	0.0	0	0	0	0	0	0	0	0	0.0	0	0	0	0	0	-1.0	0	0	0	1	0
2	2	5	22	222	20	1	2	2	0	2	1	2	0	0	0	0	0	0	133	62.066666	0	-1	0	1	0	0	1	0	2	1	3	100	200	33.333332	1	1	133.33333	0	0	0	0	0	0	0.0	0	0	0.0	0.0	0.0	0	0	0	0	0	0	0	0	0.0	0	0	0	0	0	-1.0	0	0	0	0	1
2	2	6	23	231	20	3	2	3	0	1	1	3	0	50	0	0	0	0	50	23.333334	0	0	-1	1	1	0	1	0	1	1	1	150	150	50.0	1	1	200.0	0	0	0	0	0	0	0.0	0	0	0.0	0.0	0.0	0	0	0	0	0	0	0	0	0.0	0	0	0	0	0	-1.0	0	0	0	0	0
2	2	7	20	204	20	1	2	0	0	4	1	1	80	0	0	0	0	0	120	56.0	0	-1	0	1	0	0	0	0	2	1	3	150	150	50.0	1	1	200.0	0	0	0	0	0	0	0.0	0	0	0.0	0.0	0.0	0	0	0	0	0	0	0	0	0.0	0	0	0	0	0	-1.0	0	0	0	0	1
2	2	8	20	201	20	1	2	0	1	1	1	1	80	0	0	0	0	0	120	136.0	-1	-1	0	1	0	0	0	0	2	1	3	150	150	50.0	1	1	200.0	0	0	0	0	0	0	0.0	0	0	0.0	0.0	0.0	0	0	0	0	0	0	0	0	0.0	0	0	0	0	0	-1.0	0	0	0	0	2
2	2	9	20	202	20	1	2	0	0	2	1	1	80	0	0	0	0	0	120	56.0	0	-1	0	1	0	0	0	0	2	1	3	150	150	50.0	1	1	200.0	0	0	0	0	0	0	0.0	0	0	0.0	0.0	0.0	0	0	0	0	0	0	0	0	0.0	0	0	0	0	0	-1.0	0	0	0	1	2
2	2	10	21	216	20	3	2	1	0	6	0	1	0	0	0	0	0	0	30	14.0	0	0	1	0	-1	0	0	0	1	1	1	200	100	66.666664	1	1	266.66666	0	0	0	0	0	0	0.0	0	0	0.0	0.0	0.0	0	0	0	0	0	0	0	0	0.0	0	0	0	0	0	-1.0	0	0	0	1	0
2	2	11	22	226	20	1	2	2	0	6	1	2	0	0	0	0	0	0	133	62.066666	1	-1	0	1	0	0	1	0	2	1	3	100	200	33.333332	1	1	133.33333	0	0	0	0	0	0	0.0	0	0	0.0	0.0	0.0	0	0	0	0	0	0	0	0	0.0	0	0	0	0	0	-1.0	0	0	0	0	0
2	2	12	21	214	20	3	2	1	1	4	0	1	0	0	0	0	0	0	30	0.0	-1	0	1	0	-1	0	0	0	1	1	1	200	100	66.666664	1	1	266.66666	0	0	0	0	0	0	0.0	0	0	0.0	0.0	0.0	0	0	0	0	0	0	0	0	0.0	0	0	0	0	0	-1.0	0	0	0	0	1
2	2	13	20	203	20	1	2	0	0	3	1	1	80	0	0	0	0	0	120	56.0	1	-1	0	1	0	0	0	0	2	1	3	150	150	50.0	1	1	200.0	0	0	0	0	0	0	0.0	0	0	0.0	0.0	0.0	0	0	0	0	0	0	0	0	0.0	0	0	0	0	0	-1.0	0	0	0	0	0
2	2	14	22	225	20	1	2	2	0	5	1	2	0	0	0	0	0	0	133	62.066666	0	-1	0	1	0	0	1	0	2	1	3	100	200	33.333332	1	1	133.33333	0	0	0	0	0	0	0.0	0	0	0.0	0.0	0.0	0	0	0	0	0	0	0	0	0.0	0	0	0	0	0	-1.0	0	0	0	0	0
2	2	15	23	234	20	3	2	3	0	4	1	3	0	50	0	0	0	0	50	23.333334	1	0	-1	1	1	0	1	0	1	1	1	150	150	50.0	1	1	200.0	0	0	0	0	0	0	0.0	0	0	0.0	0.0	0.0	0	0	0	0	0	0	0	0	0.0	0	0	0	0	0	-1.0	0	0	0	1	0
2	2	16	21	213	20	3	2	1	0	3	0	1	0	0	0	0	0	0	30	14.0	0	0	1	0	-1	0	0	0	1	1	1	200	100	66.666664	1	1	266.66666	0	0	0	0	0	0	0.0	0	0	0.0	0.0	0.0	0	0	0	0	0	0	0	0	0.0	0	0	0	0	0	-1.0	0	0	0	1	0
2	2	17	23	233	20	3	2	3	0	3	1	3	0	50	0	0	0	0	50	23.333334	1	0	-1	1	1	0	1	0	1	1	1	150	150	50.0	1	1	200.0	0	0	0	0	0	0	0.0	0	0	0.0	0.0	0.0	0	0	0	0	0	0	0	0	0.0	0	0	0	0	0	-1.0	0	0	0	0	0
2	2	18	22	221	20	1	2	2	1	1	1	2	0	0	0	0	0	0	133	62.066666	-1	-1	0	1	0	0	1	0	2	1	3	100	200	33.333332	1	1	133.33333	0	0	0	0	0	0	0.0	0	0	0.0	0.0	0.0	0	0	0	0	0	0	0	0	0.0	0	0	0	0	0	-1.0	0	0	0	1	0
2	2	19	23	235	20	3	2	3	0	5	1	3	0	50	0	0	0	0	50	23.333334	0	0	-1	1	1	0	1	0	1	1	1	150	150	50.0	1	1	200.0	0	0	0	0	0	0	0.0	0	0	0.0	0.0	0.0	0	0	0	0	0	0	0	0	0.0	0	0	0	0	0	-1.0	0	0	0	1	1
2	2	20	23	236	20	3	2	3	0	6	1	3	0	50	0	0	0	0	50	23.333334	1	0	-1	1	1	0	1	0	1	1	1	150	150	50.0	1	1	200.0	0	0	0	0	0	0	0.0	0	0	0.0	0.0	0.0	0	0	0	0	0	0	0	0	0.0	0	0	0	0	0	-1.0	0	0	0	1	0
2	2	21	22	224	20	1	2	2	0	4	1	2	0	0	0	0	0	0	133	62.066666	0	-1	0	1	0	0	1	0	2	1	3	100	200	33.333332	1	1	133.33333	0	0	0	0	0	0	0.0	0	0	0.0	0.0	0.0	0	0	0	0	0	0	0	0	0.0	0	0	0	0	0	-1.0	0	0	0	0	0
2	2	22	21	212	20	3	2	1	0	2	0	1	0	0	0	0	0	0	30	14.0	1	0	1	0	-1	0	0	0	1	1	1	200	100	66.666664	1	1	266.66666	0	0	0	0	0	0	0.0	0	0	0.0	0.0	0.0	0	0	0	0	0	0	0	0	0.0	0	0	0	0	0	-1.0	0	0	0	1	0
2	2	23	20	205	20	1	2	0	0	5	1	1	80	0	0	0	0	0	120	56.0	0	-1	0	1	0	0	0	0	2	1	3	150	150	50.0	1	1	200.0	0	0	0	0	0	0	0.0	0	0	0.0	0.0	0.0	0	0	0	0	0	0	0	0	0.0	0	0	0	0	0	-1.0	0	0	0	0	0
2	2	24	22	223	20	1	2	2	0	3	1	2	0	0	0	0	0	0	133	62.066666	1	-1	0	1	0	0	1	0	2	1	3	100	200	33.333332	1	1	133.33333	0	0	0	0	0	0	0.0	0	0	0.0	0.0	0.0	0	0	0	0	0	0	0	0	0.0	0	0	0	0	0	-1.0	0	0	0	0	0
2	3	1	21	211	20	3	2	1	0	1	0	2	0	0	0	0	0	70	100	46.666668	0	0	1	0	1	0	-1	0	1	1	1	200	100	66.666664	0	0	170.0	0	0	0	0	0	0	4.5	70	0	0.0	0.0	81.818184	1	0	0	0	0	0	0	0	100.0	1	1	0	0	0	-1.0	0	0	0	1	0
2	3	2	20	206	20	1	2	0	0	6	0	0	0	0	0	0	0	0	0	0.0	0	-1	0	0	0	0	0	0	3	1	3	100	200	33.333332	0	0	0.0	0	0	0	0	0	0	1.5	0	70	0.0	0.0	18.181818	0	1	0	0	0	0	0	0	0.0	1	1	0	0	0	-1.0	0	0	0	1	0
2	3	3	23	232	20	3	2	3	1	2	1	4	0	100	0	0	0	0	100	146.66667	-1	0	-1	1	1	1	1	0	2	1	1	150	150	50.0	1	1	200.0	0	0	0	0	0	0	0.0	0	0	0.0	0.0	0.0	0	0	0	0	0	0	0	0	0.0	0	0	0	0	0	-1.0	0	0	0	1	0
2	3	4	21	215	20	3	2	1	0	5	0	2	0	0	0	0	0	70	100	46.666668	0	0	1	0	1	0	-1	0	1	1	1	200	100	66.666664	0	0	170.0	0	0	0	0	0	0	4.5	70	0	0.0	0.0	81.818184	1	0	0	0	0	0	0	0	100.0	1	1	0	0	0	-1.0	0	0	0	1	0
2	3	5	22	222	20	1	2	2	0	2	1	4	0	0	0	0	0	0	200	93.333336	0	-1	0	1	1	1	1	0	3	1	3	150	150	50.0	1	1	200.0	0	0	0	0	0	0	0.0	0	0	0.0	0.0	0.0	0	0	0	0	0	0	0	0	0.0	0	0	0	0	0	-1.0	0	0	0	0	1
2	3	6	23	231	20	3	2	3	0	1	1	4	0	100	0	0	0	0	100	46.666668	0	0	-1	1	1	1	1	0	2	1	1	150	150	50.0	1	1	200.0	0	0	0	0	0	0	0.0	0	0	0.0	0.0	0.0	0	0	0	0	0	0	0	0	0.0	0	0	0	0	0	-1.0	0	0	0	0	0
2	3	7	20	204	20	1	2	0	0	4	0	0	0	0	0	0	0	0	0	0.0	0	-1	0	0	0	0	0	0	3	1	3	100	200	33.333332	0	0	0.0	0	0	0	0	0	0	1.5	0	70	0.0	0.0	18.181818	0	1	0	0	0	0	0	0	0.0	1	1	0	0	0	-1.0	0	0	0	0	1
2	3	8	20	201	20	1	2	0	1	1	0	0	0	0	0	0	0	0	0	0.0	-1	-1	0	0	0	0	0	0	3	1	3	100	200	33.333332	0	0	0.0	25	20	15	20	25	20	1.5	0	70	3.5	0.5	18.181818	0	1	15	15	10	35	15	15	0.0	1	1	0	0	0	-1.0	0	0	0	0	2
2	3	9	20	202	20	1	2	0	0	2	0	0	0	0	0	0	0	0	0	0.0	0	-1	0	0	0	0	0	0	3	1	3	100	200	33.333332	0	0	0.0	0	0	0	0	0	0	1.5	0	70	0.0	0.0	18.181818	0	1	0	0	0	0	0	0	0.0	1	1	0	0	0	-1.0	0	0	0	1	2
2	3	10	21	216	20	3	2	1	1	6	0	2	0	0	0	0	0	70	100	0.0	-1	0	1	0	1	0	-1	0	1	1	1	200	100	66.666664	0	0	170.0	20	25	20	25	20	15	4.5	70	0	0.5	3.5	81.818184	1	0	35	15	15	15	15	10	100.0	1	1	0	0	0	-1.0	0	0	0	1	0
2	3	11	22	226	20	1	2	2	0	6	1	4	0	0	0	0	0	0	200	93.333336	1	-1	0	1	1	1	1	0	3	1	3	150	150	50.0	1	1	200.0	0	0	0	0	0	0	0.0	0	0	0.0	0.0	0.0	0	0	0	0	0	0	0	0	0.0	0	0	0	0	0	-1.0	0	0	0	0	0
2	3	12	21	214	20	3	2	1	0	4	0	2	0	0	0	0	0	70	100	46.666668	1	0	1	0	1	0	-1	0	1	1	1	200	100	66.666664	0	0	170.0	0	0	0	0	0	0	4.5	70	0	0.0	0.0	81.818184	1	0	0	0	0	0	0	0	100.0	1	1	0	0	0	-1.0	0	0	0	0	1
2	3	13	20	203	20	1	2	0	0	3	0	0	0	0	0	0	0	0	0	0.0	0	-1	0	0	0	0	0	0	3	1	3	100	200	33.333332	0	0	0.0	0	0	0	0	0	0	1.5	0	70	0.0	0.0	18.181818	0	1	0	0	0	0	0	0	0.0	1	1	0	0	0	-1.0	0	0	0	0	0
2	3	14	22	225	20	1	2	2	0	5	1	4	0	0	0	0	0	0	200	93.333336	1	-1	0	1	1	1	1	0	3	1	3	150	150	50.0	1	1	200.0	0	0	0	0	0	0	0.0	0	0	0.0	0.0	0.0	0	0	0	0	0	0	0	0	0.0	0	0	0	0	0	-1.0	0	0	0	0	0
2	3	15	23	234	20	3	2	3	0	4	1	4	0	100	0	0	0	0	100	46.666668	1	0	-1	1	1	1	1	0	2	1	1	150	150	50.0	1	1	200.0	0	0	0	0	0	0	0.0	0	0	0.0	0.0	0.0	0	0	0	0	0	0	0	0	0.0	0	0	0	0	0	-1.0	0	0	0	1	0
2	3	16	21	213	20	3	2	1	0	3	0	2	0	0	0	0	0	70	100	46.666668	0	0	1	0	1	0	-1	0	1	1	1	200	100	66.666664	0	0	170.0	0	0	0	0	0	0	4.5	70	0	0.0	0.0	81.818184	1	0	0	0	0	0	0	0	100.0	1	1	0	0	0	-1.0	0	0	0	1	0
2	3	17	23	233	20	3	2	3	0	3	1	4	0	100	0	0	0	0	100	46.666668	1	0	-1	1	1	1	1	0	2	1	1	150	150	50.0	1	1	200.0	0	0	0	0	0	0	0.0	0	0	0.0	0.0	0.0	0	0	0	0	0	0	0	0	0.0	0	0	0	0	0	-1.0	0	0	0	0	0
2	3	18	22	221	20	1	2	2	1	1	1	4	0	0	0	0	0	0	200	93.333336	-1	-1	0	1	1	1	1	0	3	1	3	150	150	50.0	1	1	200.0	0	0	0	0	0	0	0.0	0	0	0.0	0.0	0.0	0	0	0	0	0	0	0	0	0.0	0	0	0	0	0	-1.0	0	0	0	1	0
2	3	19	23	235	20	3	2	3	0	5	1	4	0	100	0	0	0	0	100	46.666668	1	0	-1	1	1	1	1	0	2	1	1	150	150	50.0	1	1	200.0	0	0	0	0	0	0	0.0	0	0	0.0	0.0	0.0	0	0	0	0	0	0	0	0	0.0	0	0	0	0	0	-1.0	0	0	0	1	1
2	3	20	23	236	20	3	2	3	0	6	1	4	0	100	0	0	0	0	100	46.666668	1	0	-1	1	1	1	1	0	2	1	1	150	150	50.0	1	1	200.0	0	0	0	0	0	0	0.0	0	0	0.0	0.0	0.0	0	0	0	0	0	0	0	0	0.0	0	0	0	0	0	-1.0	0	0	0	1	0
2	3	21	22	224	20	1	2	2	0	4	1	4	0	0	0	0	0	0	200	93.333336	1	-1	0	1	1	1	1	0	3	1	3	150	150	50.0	1	1	200.0	0	0	0	0	0	0	0.0	0	0	0.0	0.0	0.0	0	0	0	0	0	0	0	0	0.0	0	0	0	0	0	-1.0	0	0	0	0	0
2	3	22	21	212	20	3	2	1	0	2	0	2	0	0	0	0	0	70	100	46.666668	1	0	1	0	1	0	-1	0	1	1	1	200	100	66.666664	0	0	170.0	0	0	0	0	0	0	4.5	70	0	0.0	0.0	81.818184	1	0	0	0	0	0	0	0	100.0	1	1	0	0	0	-1.0	0	0	0	1	0
2	3	23	20	205	20	1	2	0	0	5	0	0	0	0	0	0	0	0	0	0.0	0	-1	0	0	0	0	0	0	3	1	3	100	200	33.333332	0	0	0.0	0	0	0	0	0	0	1.5	0	70	0.0	0.0	18.181818	0	1	0	0	0	0	0	0	0.0	1	1	0	0	0	-1.0	0	0	0	0	0
2	3	24	22	223	20	1	2	2	0	3	1	4	0	0	0	0	0	0	200	93.333336	1	-1	0	1	1	1	1	0	3	1	3	150	150	50.0	1	1	200.0	0	0	0	0	0	0	0.0	0	0	0.0	0.0	0.0	0	0	0	0	0	0	0	0	0.0	0	0	0	0	0	-1.0	0	0	0	0	0
2	4	1	21	211	20	3	2	1	0	1	0	0	0	0	80	0	0	0	0	0.0	0	0	0	-1	0	0	0	0	1	0	3	150	150	50.0	0	1	80.0	0	0	0	0	0	0	4.5	30	124	0.0	0.0	31.25	0	1	0	0	0	0	0	0	19.48052	0	1	0	0	0	0.5	0	0	0	1	0
2	4	2	20	206	20	1	2	0	1	6	1	1	0	0	0	0	20	147	100	193.66667	-1	0	0	0	0	1	-1	0	1	1	1	200	100	66.666664	1	1	266.66666	0	0	0	0	0	0	0.0	0	0	0.0	0.0	0.0	0	0	0	0	0	0	0	0	0.0	0	0	0	0	0	-1.0	0	0	0	1	0
2	4	3	23	232	20	3	2	3	1	2	1	4	0	74	0	0	0	0	100	120.666664	-1	1	-1	0	1	1	1	0	3	0	3	150	150	50.0	1	0	174.0	5	10	3	0	0	0	4.5	124	30	2.0	2.0	68.75	1	0	3	3	2	40	40	40	80.51948	1	0	0	0	0	0.5	0	0	0	1	0
2	4	4	21	215	20	3	2	1	0	5	0	0	0	0	80	0	0	0	0	0.0	0	0	0	-1	0	0	0	0	1	0	3	150	150	50.0	0	1	80.0	0	0	0	0	0	0	4.5	30	124	0.0	0.0	31.25	0	1	0	0	0	0	0	0	19.48052	0	1	0	0	0	0.5	0	0	0	1	0
2	4	5	22	222	20	1	2	2	0	2	1	3	0	0	0	0	0	0	133	62.066666	1	-1	1	1	0	0	1	0	4	1	1	100	200	33.333332	1	1	133.33333	0	0	0	0	0	0	0.0	0	0	0.0	0.0	0.0	0	0	0	0	0	0	0	0	0.0	0	0	0	0	0	-1.0	0	0	0	0	1
2	4	6	23	231	20	3	2	3	0	1	1	4	0	74	0	0	0	0	100	46.666668	1	1	-1	0	1	1	1	0	3	0	3	150	150	50.0	1	0	174.0	0	0	0	0	0	0	4.5	124	30	0.0	0.0	68.75	1	0	0	0	0	0	0	0	80.51948	1	0	0	0	0	0.5	0	0	0	0	0
2	4	7	20	204	20	1	2	0	0	4	1	1	0	0	0	0	20	147	100	46.666668	0	0	0	0	0	1	-1	0	1	1	1	200	100	66.666664	1	1	266.66666	0	0	0	0	0	0	0.0	0	0	0.0	0.0	0.0	0	0	0	0	0	0	0	0	0.0	0	0	0	0	0	-1.0	0	0	0	0	1
2	4	8	20	201	20	1	2	0	0	1	1	1	0	0	0	0	20	147	100	46.666668	0	0	0	0	0	1	-1	0	1	1	1	200	100	66.666664	1	1	266.66666	0	0	0	0	0	0	0.0	0	0	0.0	0.0	0.0	0	0	0	0	0	0	0	0	0.0	0	0	0	0	0	-1.0	0	0	0	0	2
2	4	9	20	202	20	1	2	0	0	2	1	1	0	0	0	0	20	147	100	46.666668	0	0	0	0	0	1	-1	0	1	1	1	200	100	66.666664	1	1	266.66666	0	0	0	0	0	0	0.0	0	0	0.0	0.0	0.0	0	0	0	0	0	0	0	0	0.0	0	0	0	0	0	-1.0	0	0	0	1	2
2	4	10	21	216	20	3	2	1	0	6	0	0	0	0	80	0	0	0	0	0.0	0	0	0	-1	0	0	0	0	1	0	3	150	150	50.0	0	1	80.0	0	0	0	0	0	0	4.5	30	124	0.0	0.0	31.25	0	1	0	0	0	0	0	0	19.48052	0	1	0	0	0	0.5	0	0	0	1	0
2	4	11	22	226	20	1	2	2	0	6	1	3	0	0	0	0	0	0	133	62.066666	1	-1	1	1	0	0	1	0	4	1	1	100	200	33.333332	1	1	133.33333	0	0	0	0	0	0	0.0	0	0	0.0	0.0	0.0	0	0	0	0	0	0	0	0	0.0	0	0	0	0	0	-1.0	0	0	0	0	0
2	4	12	21	214	20	3	2	1	0	4	0	0	0	0	80	0	0	0	0	0.0	0	0	0	-1	0	0	0	0	1	0	3	150	150	50.0	0	1	80.0	0	0	0	0	0	0	4.5	30	124	0.0	0.0	31.25	0	1	0	0	0	0	0	0	19.48052	0	1	0	0	0	0.5	0	0	0	0	1
2	4	13	20	203	20	1	2	0	0	3	1	1	0	0	0	0	20	147	100	46.666668	0	0	0	0	0	1	-1	0	1	1	1	200	100	66.666664	1	1	266.66666	0	0	0	0	0	0	0.0	0	0	0.0	0.0	0.0	0	0	0	0	0	0	0	0	0.0	0	0	0	0	0	-1.0	0	0	0	0	0
2	4	14	22	225	20	1	2	2	0	5	1	3	0	0	0	0	0	0	133	62.066666	0	-1	1	1	0	0	1	0	4	1	1	100	200	33.333332	1	1	133.33333	0	0	0	0	0	0	0.0	0	0	0.0	0.0	0.0	0	0	0	0	0	0	0	0	0.0	0	0	0	0	0	-1.0	0	0	0	0	0
2	4	15	23	234	20	3	2	3	0	4	1	4	0	74	0	0	0	0	100	46.666668	1	1	-1	0	1	1	1	0	3	0	3	150	150	50.0	1	0	174.0	0	0	0	0	0	0	4.5	124	30	0.0	0.0	68.75	1	0	0	0	0	0	0	0	80.51948	1	0	0	0	0	0.5	0	0	0	1	0
2	4	16	21	213	20	3	2	1	1	3	0	0	0	0	80	0	0	0	0	0.0	-1	0	0	-1	0	0	0	0	1	0	3	150	150	50.0	0	1	80.0	0	0	0	5	10	3	4.5	30	124	2.0	2.0	31.25	0	1	40	40	40	3	3	2	19.48052	0	1	0	0	0	0.5	0	0	0	1	0
2	4	17	23	233	20	3	2	3	0	3	1	4	0	74	0	0	0	0	100	46.666668	0	1	-1	0	1	1	1	0	3	0	3	150	150	50.0	1	0	174.0	0	0	0	0	0	0	4.5	124	30	0.0	0.0	68.75	1	0	0	0	0	0	0	0	80.51948	1	0	0	0	0	0.5	0	0	0	0	0
2	4	18	22	221	20	1	2	2	1	1	1	3	0	0	0	0	0	0	133	62.066666	-1	-1	1	1	0	0	1	0	4	1	1	100	200	33.333332	1	1	133.33333	0	0	0	0	0	0	0.0	0	0	0.0	0.0	0.0	0	0	0	0	0	0	0	0	0.0	0	0	0	0	0	-1.0	0	0	0	1	0
2	4	19	23	235	20	3	2	3	0	5	1	4	0	74	0	0	0	0	100	46.666668	1	1	-1	0	1	1	1	0	3	0	3	150	150	50.0	1	0	174.0	0	0	0	0	0	0	4.5	124	30	0.0	0.0	68.75	1	0	0	0	0	0	0	0	80.51948	1	0	0	0	0	0.5	0	0	0	1	1
2	4	20	23	236	20	3	2	3	0	6	1	4	0	74	0	0	0	0	100	46.666668	1	1	-1	0	1	1	1	0	3	0	3	150	150	50.0	1	0	174.0	0	0	0	0	0	0	4.5	124	30	0.0	0.0	68.75	1	0	0	0	0	0	0	0	80.51948	1	0	0	0	0	0.5	0	0	0	1	0
2	4	21	22	224	20	1	2	2	0	4	1	3	0	0	0	0	0	0	133	62.066666	0	-1	1	1	0	0	1	0	4	1	1	100	200	33.333332	1	1	133.33333	0	0	0	0	0	0	0.0	0	0	0.0	0.0	0.0	0	0	0	0	0	0	0	0	0.0	0	0	0	0	0	-1.0	0	0	0	0	0
2	4	22	21	212	20	3	2	1	0	2	0	0	0	0	80	0	0	0	0	0.0	0	0	0	-1	0	0	0	0	1	0	3	150	150	50.0	0	1	80.0	0	0	0	0	0	0	4.5	30	124	0.0	0.0	31.25	0	1	0	0	0	0	0	0	19.48052	0	1	0	0	0	0.5	0	0	0	1	0
2	4	23	20	205	20	1	2	0	0	5	1	1	0	0	0	0	20	147	100	66.666664	1	0	0	0	0	1	-1	0	1	1	1	200	100	66.666664	1	1	266.66666	0	0	0	0	0	0	0.0	0	0	0.0	0.0	0.0	0	0	0	0	0	0	0	0	0.0	0	0	0	0	0	-1.0	0	0	0	0	0
2	4	24	22	223	20	1	2	2	0	3	1	3	0	0	0	0	0	0	133	62.066666	1	-1	1	1	0	0	1	0	4	1	1	100	200	33.333332	1	1	133.33333	0	0	0	0	0	0	0.0	0	0	0.0	0.0	0.0	0	0	0	0	0	0	0	0	0.0	0	0	0	0	0	-1.0	0	0	0	0	0
2	5	1	21	211	20	3	2	1	0	1	0	2	0	0	0	0	50	0	150	70.0	0	0	1	0	1	-1	0	0	1	1	3	150	150	50.0	1	1	200.0	0	0	0	0	0	0	0.0	0	0	0.0	0.0	0.0	0	0	0	0	0	0	0	0	0.0	0	0	0	0	0	-1.0	0	0	0	1	0
2	5	2	20	206	20	1	2	0	1	6	1	1	0	0	0	0	20	13	100	59.666668	-1	0	1	0	0	0	-1	0	2	1	1	100	200	33.333332	1	1	133.33333	0	0	0	0	0	0	0.0	0	0	0.0	0.0	0.0	0	0	0	0	0	0	0	0	0.0	0	0	0	0	0	-1.0	0	0	0	1	0
2	5	3	23	232	20	3	2	3	1	2	0	2	0	100	0	0	0	0	100	0.0	-1	0	-1	0	1	1	0	0	4	1	3	150	150	50.0	1	1	200.0	0	0	0	0	0	0	0.0	0	0	0.0	0.0	0.0	0	0	0	0	0	0	0	0	0.0	0	0	0	0	0	-1.0	0	0	0	1	0
2	5	4	21	215	20	3	2	1	1	5	0	2	0	0	0	0	50	0	150	0.0	-1	0	1	0	1	-1	0	0	1	1	3	150	150	50.0	1	1	200.0	0	0	0	0	0	0	0.0	0	0	0.0	0.0	0.0	0	0	0	0	0	0	0	0	0.0	0	0	0	0	0	-1.0	0	0	0	1	0
2	5	5	22	222	20	1	2	2	0	2	1	4	0	0	0	0	0	0	267	124.6	1	-1	1	1	1	1	0	0	5	1	1	200	100	66.666664	1	1	266.66666	0	0	0	0	0	0	0.0	0	0	0.0	0.0	0.0	0	0	0	0	0	0	0	0	0.0	0	0	0	0	0	-1.0	0	0	0	0	1
2	5	6	23	231	20	3	2	3	0	1	0	2	0	100	0	0	0	0	100	46.666668	0	0	-1	0	1	1	0	0	4	1	3	150	150	50.0	1	1	200.0	0	0	0	0	0	0	0.0	0	0	0.0	0.0	0.0	0	0	0	0	0	0	0	0	0.0	0	0	0	0	0	-1.0	0	0	0	0	0
2	5	7	20	204	20	1	2	0	0	4	1	1	0	0	0	0	20	13	100	46.666668	0	0	1	0	0	0	-1	0	2	1	1	100	200	33.333332	1	1	133.33333	0	0	0	0	0	0	0.0	0	0	0.0	0.0	0.0	0	0	0	0	0	0	0	0	0.0	0	0	0	0	0	-1.0	0	0	0	0	1
2	5	8	20	201	20	1	2	0	0	1	1	1	0	0	0	0	20	13	100	46.666668	0	0	1	0	0	0	-1	0	2	1	1	100	200	33.333332	1	1	133.33333	0	0	0	0	0	0	0.0	0	0	0.0	0.0	0.0	0	0	0	0	0	0	0	0	0.0	0	0	0	0	0	-1.0	0	0	0	0	2
2	5	9	20	202	20	1	2	0	0	2	1	1	0	0	0	0	20	13	100	46.666668	1	0	1	0	0	0	-1	0	2	1	1	100	200	33.333332	1	1	133.33333	0	0	0	0	0	0	0.0	0	0	0.0	0.0	0.0	0	0	0	0	0	0	0	0	0.0	0	0	0	0	0	-1.0	0	0	0	1	2
2	5	10	21	216	20	3	2	1	0	6	0	2	0	0	0	0	50	0	150	70.0	0	0	1	0	1	-1	0	0	1	1	3	150	150	50.0	1	1	200.0	0	0	0	0	0	0	0.0	0	0	0.0	0.0	0.0	0	0	0	0	0	0	0	0	0.0	0	0	0	0	0	-1.0	0	0	0	1	0
