study	treatment	session	group	subject	period	actiontype	choice	runningchoice	threshold	metthreshold
1	"other.american.11"	1	1	1	1	"extraction"	4	4	93	1
1	"other.american.11"	1	1	2	1	"extraction"	2	2	93	1
1	"other.american.11"	1	1	3	1	"extraction"	4	4	93	1
1	"other.american.11"	1	1	4	1	"extraction"	4	4	93	1
1	"other.american.11"	1	2	5	1	"extraction"	4	4	150	1
1	"other.american.11"	1	2	6	1	"extraction"	4	4	150	1
1	"other.american.11"	1	2	7	1	"extraction"	4	4	150	1
1	"other.american.11"	1	2	8	1	"extraction"	4	4	150	1
1	"other.american.11"	1	3	9	1	"extraction"	3	3	83	1
1	"other.american.11"	1	3	10	1	"extraction"	2	2	83	1
1	"other.american.11"	1	3	11	1	"extraction"	4	4	83	1
1	"other.american.11"	1	3	12	1	"extraction"	4	4	83	1
1	"other.american.11"	1	4	13	1	"extraction"	3	3	150	1
1	"other.american.11"	1	4	14	1	"extraction"	4	4	150	1
1	"other.american.11"	1	4	15	1	"extraction"	4	4	150	1
1	"other.american.11"	1	4	16	1	"extraction"	4	4	150	1
1	"other.american.11"	1	5	17	1	"extraction"	3	3	148	1
1	"other.american.11"	1	5	18	1	"extraction"	2	2	148	1
1	"other.american.11"	1	5	19	1	"extraction"	3	3	148	1
1	"other.american.11"	1	5	20	1	"extraction"	3	3	148	1
1	"other.american.11"	1	6	21	1	"extraction"	2	2	99	1
1	"other.american.11"	1	6	22	1	"extraction"	3	3	99	1
1	"other.american.11"	1	6	23	1	"extraction"	2	2	99	1
1	"other.american.11"	1	6	24	1	"extraction"	4	4	99	1
1	"other.american.11"	1	1	1	2	"extraction"	4	8	93	1
1	"other.american.11"	1	1	2	2	"extraction"	4	6	93	1
1	"other.american.11"	1	1	3	2	"extraction"	4	8	93	1
1	"other.american.11"	1	1	4	2	"extraction"	4	8	93	1
1	"other.american.11"	1	2	5	2	"extraction"	4	8	150	1
1	"other.american.11"	1	2	6	2	"extraction"	4	8	150	1
1	"other.american.11"	1	2	7	2	"extraction"	4	8	150	1
1	"other.american.11"	1	2	8	2	"extraction"	3	7	150	1
1	"other.american.11"	1	3	9	2	"extraction"	3	6	83	1
1	"other.american.11"	1	3	10	2	"extraction"	4	6	83	1
1	"other.american.11"	1	3	11	2	"extraction"	4	8	83	1
1	"other.american.11"	1	3	12	2	"extraction"	4	8	83	1
1	"other.american.11"	1	4	13	2	"extraction"	4	7	150	1
1	"other.american.11"	1	4	14	2	"extraction"	4	8	150	1
1	"other.american.11"	1	4	15	2	"extraction"	4	8	150	1
1	"other.american.11"	1	4	16	2	"extraction"	4	8	150	1
1	"other.american.11"	1	5	17	2	"extraction"	2	5	148	1
1	"other.american.11"	1	5	18	2	"extraction"	2	4	148	1
1	"other.american.11"	1	5	19	2	"extraction"	3	6	148	1
1	"other.american.11"	1	5	20	2	"extraction"	4	7	148	1
1	"other.american.11"	1	6	21	2	"extraction"	1	3	99	1
1	"other.american.11"	1	6	22	2	"extraction"	4	7	99	1
1	"other.american.11"	1	6	23	2	"extraction"	1	3	99	1
1	"other.american.11"	1	6	24	2	"extraction"	3	7	99	1
1	"other.american.11"	1	1	1	3	"extraction"	4	12	93	1
1	"other.american.11"	1	1	2	3	"extraction"	4	10	93	1
1	"other.american.11"	1	1	3	3	"extraction"	4	12	93	1
1	"other.american.11"	1	1	4	3	"extraction"	4	12	93	1
1	"other.american.11"	1	2	5	3	"extraction"	3	11	150	1
1	"other.american.11"	1	2	6	3	"extraction"	4	12	150	1
1	"other.american.11"	1	2	7	3	"extraction"	4	12	150	1
1	"other.american.11"	1	2	8	3	"extraction"	4	11	150	1
1	"other.american.11"	1	3	9	3	"extraction"	3	9	83	1
1	"other.american.11"	1	3	10	3	"extraction"	3	9	83	1
1	"other.american.11"	1	3	11	3	"extraction"	3	11	83	1
1	"other.american.11"	1	3	12	3	"extraction"	4	12	83	1
1	"other.american.11"	1	4	13	3	"extraction"	4	11	150	1
1	"other.american.11"	1	4	14	3	"extraction"	4	12	150	1
1	"other.american.11"	1	4	15	3	"extraction"	4	12	150	1
1	"other.american.11"	1	4	16	3	"extraction"	4	12	150	1
1	"other.american.11"	1	5	17	3	"extraction"	4	9	148	1
1	"other.american.11"	1	5	18	3	"extraction"	3	7	148	1
1	"other.american.11"	1	5	19	3	"extraction"	2	8	148	1
1	"other.american.11"	1	5	20	3	"extraction"	4	11	148	1
1	"other.american.11"	1	6	21	3	"extraction"	2	5	99	1
1	"other.american.11"	1	6	22	3	"extraction"	3	10	99	1
1	"other.american.11"	1	6	23	3	"extraction"	4	7	99	1
1	"other.american.11"	1	6	24	3	"extraction"	4	11	99	1
1	"other.american.11"	1	1	1	4	"extraction"	3	15	93	1
1	"other.american.11"	1	1	2	4	"extraction"	4	14	93	1
1	"other.american.11"	1	1	3	4	"extraction"	4	16	93	1
1	"other.american.11"	1	1	4	4	"extraction"	4	16	93	1
1	"other.american.11"	1	2	5	4	"extraction"	4	15	150	1
1	"other.american.11"	1	2	6	4	"extraction"	4	16	150	1
1	"other.american.11"	1	2	7	4	"extraction"	4	16	150	1
1	"other.american.11"	1	2	8	4	"extraction"	4	15	150	1
1	"other.american.11"	1	3	9	4	"extraction"	3	12	83	1
1	"other.american.11"	1	3	10	4	"extraction"	3	12	83	1
1	"other.american.11"	1	3	11	4	"extraction"	3	14	83	1
1	"other.american.11"	1	3	12	4	"extraction"	4	16	83	1
1	"other.american.11"	1	4	13	4	"extraction"	4	15	150	1
1	"other.american.11"	1	4	14	4	"extraction"	4	16	150	1
1	"other.american.11"	1	4	15	4	"extraction"	4	16	150	1
1	"other.american.11"	1	4	16	4	"extraction"	4	16	150	1
1	"other.american.11"	1	5	17	4	"extraction"	3	12	148	1
1	"other.american.11"	1	5	18	4	"extraction"	3	10	148	1
1	"other.american.11"	1	5	19	4	"extraction"	2	10	148	1
1	"other.american.11"	1	5	20	4	"extraction"	3	14	148	1
1	"other.american.11"	1	6	21	4	"extraction"	4	9	99	1
1	"other.american.11"	1	6	22	4	"extraction"	2	12	99	1
1	"other.american.11"	1	6	23	4	"extraction"	4	11	99	1
1	"other.american.11"	1	6	24	4	"extraction"	4	15	99	1
1	"other.american.11"	1	1	1	5	"extraction"	4	19	93	1
1	"other.american.11"	1	1	2	5	"extraction"	4	18	93	1
1	"other.american.11"	1	1	3	5	"extraction"	4	20	93	1
1	"other.american.11"	1	1	4	5	"extraction"	4	20	93	1
1	"other.american.11"	1	2	5	5	"extraction"	4	19	150	1
1	"other.american.11"	1	2	6	5	"extraction"	4	20	150	1
1	"other.american.11"	1	2	7	5	"extraction"	4	20	150	1
1	"other.american.11"	1	2	8	5	"extraction"	3	18	150	1
1	"other.american.11"	1	3	9	5	"extraction"	3	15	83	1
1	"other.american.11"	1	3	10	5	"extraction"	2	14	83	1
1	"other.american.11"	1	3	11	5	"extraction"	3	17	83	1
1	"other.american.11"	1	3	12	5	"extraction"	4	20	83	1
1	"other.american.11"	1	4	13	5	"extraction"	2	17	150	1
1	"other.american.11"	1	4	14	5	"extraction"	4	20	150	1
1	"other.american.11"	1	4	15	5	"extraction"	4	20	150	1
1	"other.american.11"	1	4	16	5	"extraction"	4	20	150	1
1	"other.american.11"	1	5	17	5	"extraction"	2	14	148	1
1	"other.american.11"	1	5	18	5	"extraction"	2	12	148	1
1	"other.american.11"	1	5	19	5	"extraction"	4	14	148	1
1	"other.american.11"	1	5	20	5	"extraction"	4	18	148	1
1	"other.american.11"	1	6	21	5	"extraction"	4	13	99	1
1	"other.american.11"	1	6	22	5	"extraction"	1	13	99	1
1	"other.american.11"	1	6	23	5	"extraction"	4	15	99	1
1	"other.american.11"	1	6	24	5	"extraction"	3	18	99	1
1	"other.american.11"	1	1	1	6	"extraction"	4	23	93	1
1	"other.american.11"	1	1	2	6	"extraction"	4	22	93	1
1	"other.american.11"	1	1	3	6	"extraction"	4	24	93	1
1	"other.american.11"	1	1	4	6	"extraction"	4	24	93	1
1	"other.american.11"	1	2	5	6	"extraction"	4	23	150	1
1	"other.american.11"	1	2	6	6	"extraction"	4	24	150	1
1	"other.american.11"	1	2	7	6	"extraction"	4	24	150	1
1	"other.american.11"	1	2	8	6	"extraction"	4	22	150	1
1	"other.american.11"	1	3	9	6	"extraction"	3	18	83	1
1	"other.american.11"	1	3	10	6	"extraction"	1	15	83	1
1	"other.american.11"	1	3	11	6	"extraction"	4	21	83	1
1	"other.american.11"	1	3	12	6	"extraction"	4	24	83	1
1	"other.american.11"	1	4	13	6	"extraction"	4	21	150	1
1	"other.american.11"	1	4	14	6	"extraction"	4	24	150	1
1	"other.american.11"	1	4	15	6	"extraction"	4	24	150	1
1	"other.american.11"	1	4	16	6	"extraction"	4	24	150	1
1	"other.american.11"	1	5	17	6	"extraction"	3	17	148	1
1	"other.american.11"	1	5	18	6	"extraction"	4	16	148	1
1	"other.american.11"	1	5	19	6	"extraction"	3	17	148	1
1	"other.american.11"	1	5	20	6	"extraction"	4	22	148	1
1	"other.american.11"	1	6	21	6	"extraction"	2	15	99	1
1	"other.american.11"	1	6	22	6	"extraction"	1	14	99	1
1	"other.american.11"	1	6	23	6	"extraction"	4	19	99	1
1	"other.american.11"	1	6	24	6	"extraction"	4	22	99	1
1	"other.american.11"	1	1	1	7	"extraction"	4	27	93	1
1	"other.american.11"	1	1	2	7	"extraction"	4	26	93	1
1	"other.american.11"	1	1	3	7	"extraction"	4	28	93	1
1	"other.american.11"	1	1	4	7	"extraction"	4	28	93	1
1	"other.american.11"	1	2	5	7	"extraction"	4	27	150	1
1	"other.american.11"	1	2	6	7	"extraction"	4	28	150	1
1	"other.american.11"	1	2	7	7	"extraction"	4	28	150	1
1	"other.american.11"	1	2	8	7	"extraction"	4	26	150	1
1	"other.american.11"	1	3	9	7	"extraction"	3	21	83	1
1	"other.american.11"	1	3	10	7	"extraction"	3	18	83	1
1	"other.american.11"	1	3	11	7	"extraction"	1	22	83	1
1	"other.american.11"	1	3	12	7	"extraction"	4	28	83	1
1	"other.american.11"	1	4	13	7	"extraction"	4	25	150	1
1	"other.american.11"	1	4	14	7	"extraction"	4	28	150	1
1	"other.american.11"	1	4	15	7	"extraction"	4	28	150	1
1	"other.american.11"	1	4	16	7	"extraction"	4	28	150	1
1	"other.american.11"	1	5	17	7	"extraction"	3	20	148	1
1	"other.american.11"	1	5	18	7	"extraction"	3	19	148	1
1	"other.american.11"	1	5	19	7	"extraction"	3	20	148	1
1	"other.american.11"	1	5	20	7	"extraction"	4	26	148	1
1	"other.american.11"	1	6	21	7	"extraction"	3	18	99	1
1	"other.american.11"	1	6	22	7	"extraction"	4	18	99	1
1	"other.american.11"	1	6	23	7	"extraction"	2	21	99	1
1	"other.american.11"	1	6	24	7	"extraction"	4	26	99	1
1	"other.american.11"	1	1	1	8	"extraction"	4	31	93	1
1	"other.american.11"	1	1	2	8	"extraction"	4	30	93	1
1	"other.american.11"	1	1	3	8	"extraction"	4	32	93	1
1	"other.american.11"	1	1	4	8	"extraction"	4	32	93	1
1	"other.american.11"	1	2	5	8	"extraction"	4	31	150	1
1	"other.american.11"	1	2	6	8	"extraction"	4	32	150	1
1	"other.american.11"	1	2	7	8	"extraction"	4	32	150	1
1	"other.american.11"	1	2	8	8	"extraction"	4	30	150	1
1	"other.american.11"	1	3	9	8	"extraction"	3	24	83	1
1	"other.american.11"	1	3	10	8	"extraction"	3	21	83	1
1	"other.american.11"	1	3	11	8	"extraction"	2	24	83	1
1	"other.american.11"	1	3	12	8	"extraction"	4	32	83	1
1	"other.american.11"	1	4	13	8	"extraction"	4	29	150	1
1	"other.american.11"	1	4	14	8	"extraction"	4	32	150	1
1	"other.american.11"	1	4	15	8	"extraction"	4	32	150	1
1	"other.american.11"	1	4	16	8	"extraction"	4	32	150	1
1	"other.american.11"	1	5	17	8	"extraction"	3	23	148	1
1	"other.american.11"	1	5	18	8	"extraction"	4	23	148	1
1	"other.american.11"	1	5	19	8	"extraction"	2	22	148	1
1	"other.american.11"	1	5	20	8	"extraction"	4	30	148	1
1	"other.american.11"	1	6	21	8	"extraction"	2	20	99	1
1	"other.american.11"	1	6	22	8	"extraction"	2	20	99	1
1	"other.american.11"	1	6	23	8	"extraction"	2	23	99	1
1	"other.american.11"	1	6	24	8	"extraction"	4	30	99	1
1	"other.american.11"	1	1	1	9	"extraction"	4	35	93	1
1	"other.american.11"	1	1	2	9	"extraction"	4	34	93	1
1	"other.american.11"	1	1	3	9	"extraction"	4	36	93	1
1	"other.american.11"	1	1	4	9	"extraction"	4	36	93	1
1	"other.american.11"	1	2	5	9	"extraction"	3	34	150	1
1	"other.american.11"	1	2	6	9	"extraction"	4	36	150	1
1	"other.american.11"	1	2	7	9	"extraction"	4	36	150	1
1	"other.american.11"	1	2	8	9	"extraction"	4	34	150	1
1	"other.american.11"	1	3	9	9	"extraction"	3	27	83	1
1	"other.american.11"	1	3	10	9	"extraction"	3	24	83	1
1	"other.american.11"	1	3	11	9	"extraction"	2	26	83	1
1	"other.american.11"	1	3	12	9	"extraction"	4	36	83	1
1	"other.american.11"	1	4	13	9	"extraction"	4	33	150	1
1	"other.american.11"	1	4	14	9	"extraction"	4	36	150	1
1	"other.american.11"	1	4	15	9	"extraction"	4	36	150	1
1	"other.american.11"	1	4	16	9	"extraction"	4	36	150	1
1	"other.american.11"	1	5	17	9	"extraction"	3	26	148	1
1	"other.american.11"	1	5	18	9	"extraction"	4	27	148	1
1	"other.american.11"	1	5	19	9	"extraction"	4	26	148	1
1	"other.american.11"	1	5	20	9	"extraction"	4	34	148	1
1	"other.american.11"	1	6	21	9	"extraction"	3	23	99	1
1	"other.american.11"	1	6	22	9	"extraction"	2	22	99	1
1	"other.american.11"	1	6	23	9	"extraction"	3	26	99	1
1	"other.american.11"	1	6	24	9	"extraction"	4	34	99	1
1	"other.american.11"	1	1	1	10	"extraction"	4	39	93	1
1	"other.american.11"	1	1	2	10	"extraction"	4	38	93	1
1	"other.american.11"	1	1	3	10	"extraction"	4	40	93	1
1	"other.american.11"	1	1	4	10	"extraction"	4	40	93	1
1	"other.american.11"	1	2	5	10	"extraction"	4	38	150	1
1	"other.american.11"	1	2	6	10	"extraction"	4	40	150	1
1	"other.american.11"	1	2	7	10	"extraction"	4	40	150	1
1	"other.american.11"	1	2	8	10	"extraction"	4	38	150	1
1	"other.american.11"	1	3	9	10	"extraction"	3	30	83	1
1	"other.american.11"	1	3	10	10	"extraction"	4	28	83	1
1	"other.american.11"	1	3	11	10	"extraction"	0	26	83	1
1	"other.american.11"	1	3	12	10	"extraction"	4	40	83	1
1	"other.american.11"	1	4	13	10	"extraction"	4	37	150	1
1	"other.american.11"	1	4	14	10	"extraction"	4	40	150	1
1	"other.american.11"	1	4	15	10	"extraction"	4	40	150	1
1	"other.american.11"	1	4	16	10	"extraction"	4	40	150	1
1	"other.american.11"	1	5	17	10	"extraction"	4	30	148	1
1	"other.american.11"	1	5	18	10	"extraction"	3	30	148	1
1	"other.american.11"	1	5	19	10	"extraction"	4	30	148	1
1	"other.american.11"	1	5	20	10	"extraction"	4	38	148	1
1	"other.american.11"	1	6	21	10	"extraction"	3	26	99	1
1	"other.american.11"	1	6	22	10	"extraction"	1	23	99	1
1	"other.american.11"	1	6	23	10	"extraction"	4	30	99	1
1	"other.american.11"	1	6	24	10	"extraction"	4	38	99	1
1	"other.american.11"	1	1	1	1	"contribution"	1	1	93	1
1	"other.american.11"	1	1	2	1	"contribution"	1	1	93	1
1	"other.american.11"	1	1	3	1	"contribution"	4	4	93	1
1	"other.american.11"	1	1	4	1	"contribution"	2	2	93	1
1	"other.american.11"	1	2	5	1	"contribution"	4	4	150	1
1	"other.american.11"	1	2	6	1	"contribution"	4	4	150	1
1	"other.american.11"	1	2	7	1	"contribution"	2	2	150	1
1	"other.american.11"	1	2	8	1	"contribution"	1	1	150	1
1	"other.american.11"	1	3	9	1	"contribution"	4	4	83	1
1	"other.american.11"	1	3	10	1	"contribution"	2	2	83	1
1	"other.american.11"	1	3	11	1	"contribution"	1	1	83	1
1	"other.american.11"	1	3	12	1	"contribution"	4	4	83	1
1	"other.american.11"	1	4	13	1	"contribution"	1	1	150	1
1	"other.american.11"	1	4	14	1	"contribution"	2	2	150	1
1	"other.american.11"	1	4	15	1	"contribution"	4	4	150	1
1	"other.american.11"	1	4	16	1	"contribution"	4	4	150	1
1	"other.american.11"	1	5	17	1	"contribution"	4	4	148	1
1	"other.american.11"	1	5	18	1	"contribution"	4	4	148	1
1	"other.american.11"	1	5	19	1	"contribution"	3	3	148	1
1	"other.american.11"	1	5	20	1	"contribution"	4	4	148	1
1	"other.american.11"	1	6	21	1	"contribution"	2	2	99	1
1	"other.american.11"	1	6	22	1	"contribution"	4	4	99	1
1	"other.american.11"	1	6	23	1	"contribution"	4	4	99	1
1	"other.american.11"	1	6	24	1	"contribution"	4	4	99	1
1	"other.american.11"	1	1	1	2	"contribution"	2	3	93	1
1	"other.american.11"	1	1	2	2	"contribution"	2	3	93	1
1	"other.american.11"	1	1	3	2	"contribution"	4	8	93	1
1	"other.american.11"	1	1	4	2	"contribution"	2	4	93	1
1	"other.american.11"	1	2	5	2	"contribution"	3	7	150	1
1	"other.american.11"	1	2	6	2	"contribution"	4	8	150	1
1	"other.american.11"	1	2	7	2	"contribution"	4	6	150	1
1	"other.american.11"	1	2	8	2	"contribution"	4	5	150	1
1	"other.american.11"	1	3	9	2	"contribution"	4	8	83	1
1	"other.american.11"	1	3	10	2	"contribution"	2	4	83	1
1	"other.american.11"	1	3	11	2	"contribution"	3	4	83	1
1	"other.american.11"	1	3	12	2	"contribution"	2	6	83	1
1	"other.american.11"	1	4	13	2	"contribution"	4	5	150	1
1	"other.american.11"	1	4	14	2	"contribution"	3	5	150	1
1	"other.american.11"	1	4	15	2	"contribution"	4	8	150	1
1	"other.american.11"	1	4	16	2	"contribution"	4	8	150	1
1	"other.american.11"	1	5	17	2	"contribution"	4	8	148	1
1	"other.american.11"	1	5	18	2	"contribution"	4	8	148	1
1	"other.american.11"	1	5	19	2	"contribution"	3	6	148	1
1	"other.american.11"	1	5	20	2	"contribution"	4	8	148	1
1	"other.american.11"	1	6	21	2	"contribution"	3	5	99	1
1	"other.american.11"	1	6	22	2	"contribution"	3	7	99	1
1	"other.american.11"	1	6	23	2	"contribution"	4	8	99	1
1	"other.american.11"	1	6	24	2	"contribution"	4	8	99	1
1	"other.american.11"	1	1	1	3	"contribution"	2	5	93	1
1	"other.american.11"	1	1	2	3	"contribution"	3	6	93	1
1	"other.american.11"	1	1	3	3	"contribution"	4	12	93	1
1	"other.american.11"	1	1	4	3	"contribution"	1	5	93	1
1	"other.american.11"	1	2	5	3	"contribution"	4	11	150	1
1	"other.american.11"	1	2	6	3	"contribution"	4	12	150	1
1	"other.american.11"	1	2	7	3	"contribution"	4	10	150	1
1	"other.american.11"	1	2	8	3	"contribution"	4	9	150	1
1	"other.american.11"	1	3	9	3	"contribution"	3	11	83	1
1	"other.american.11"	1	3	10	3	"contribution"	2	6	83	1
1	"other.american.11"	1	3	11	3	"contribution"	3	7	83	1
1	"other.american.11"	1	3	12	3	"contribution"	2	8	83	1
1	"other.american.11"	1	4	13	3	"contribution"	4	9	150	1
1	"other.american.11"	1	4	14	3	"contribution"	4	9	150	1
1	"other.american.11"	1	4	15	3	"contribution"	4	12	150	1
1	"other.american.11"	1	4	16	3	"contribution"	4	12	150	1
1	"other.american.11"	1	5	17	3	"contribution"	4	12	148	1
1	"other.american.11"	1	5	18	3	"contribution"	4	12	148	1
1	"other.american.11"	1	5	19	3	"contribution"	3	9	148	1
1	"other.american.11"	1	5	20	3	"contribution"	4	12	148	1
1	"other.american.11"	1	6	21	3	"contribution"	4	9	99	1
1	"other.american.11"	1	6	22	3	"contribution"	4	11	99	1
1	"other.american.11"	1	6	23	3	"contribution"	2	10	99	1
1	"other.american.11"	1	6	24	3	"contribution"	4	12	99	1
1	"other.american.11"	1	1	1	4	"contribution"	1	6	93	1
1	"other.american.11"	1	1	2	4	"contribution"	1	7	93	1
1	"other.american.11"	1	1	3	4	"contribution"	0	12	93	1
1	"other.american.11"	1	1	4	4	"contribution"	2	7	93	1
1	"other.american.11"	1	2	5	4	"contribution"	4	15	150	1
1	"other.american.11"	1	2	6	4	"contribution"	3	15	150	1
1	"other.american.11"	1	2	7	4	"contribution"	3	13	150	1
1	"other.american.11"	1	2	8	4	"contribution"	4	13	150	1
1	"other.american.11"	1	3	9	4	"contribution"	2	13	83	1
1	"other.american.11"	1	3	10	4	"contribution"	4	10	83	1
1	"other.american.11"	1	3	11	4	"contribution"	2	9	83	1
1	"other.american.11"	1	3	12	4	"contribution"	3	11	83	1
1	"other.american.11"	1	4	13	4	"contribution"	4	13	150	1
1	"other.american.11"	1	4	14	4	"contribution"	4	13	150	1
1	"other.american.11"	1	4	15	4	"contribution"	4	16	150	1
1	"other.american.11"	1	4	16	4	"contribution"	4	16	150	1
1	"other.american.11"	1	5	17	4	"contribution"	4	16	148	1
1	"other.american.11"	1	5	18	4	"contribution"	4	16	148	1
1	"other.american.11"	1	5	19	4	"contribution"	4	13	148	1
1	"other.american.11"	1	5	20	4	"contribution"	4	16	148	1
1	"other.american.11"	1	6	21	4	"contribution"	4	13	99	1
1	"other.american.11"	1	6	22	4	"contribution"	4	15	99	1
1	"other.american.11"	1	6	23	4	"contribution"	2	12	99	1
1	"other.american.11"	1	6	24	4	"contribution"	4	16	99	1
1	"other.american.11"	1	1	1	5	"contribution"	0	6	93	1
1	"other.american.11"	1	1	2	5	"contribution"	4	11	93	1
1	"other.american.11"	1	1	3	5	"contribution"	0	12	93	1
1	"other.american.11"	1	1	4	5	"contribution"	2	9	93	1
1	"other.american.11"	1	2	5	5	"contribution"	4	19	150	1
1	"other.american.11"	1	2	6	5	"contribution"	4	19	150	1
1	"other.american.11"	1	2	7	5	"contribution"	4	17	150	1
1	"other.american.11"	1	2	8	5	"contribution"	4	17	150	1
1	"other.american.11"	1	3	9	5	"contribution"	4	17	83	1
1	"other.american.11"	1	3	10	5	"contribution"	4	14	83	1
1	"other.american.11"	1	3	11	5	"contribution"	3	12	83	1
1	"other.american.11"	1	3	12	5	"contribution"	3	14	83	1
1	"other.american.11"	1	4	13	5	"contribution"	4	17	150	1
1	"other.american.11"	1	4	14	5	"contribution"	4	17	150	1
1	"other.american.11"	1	4	15	5	"contribution"	4	20	150	1
1	"other.american.11"	1	4	16	5	"contribution"	4	20	150	1
1	"other.american.11"	1	5	17	5	"contribution"	4	20	148	1
1	"other.american.11"	1	5	18	5	"contribution"	3	19	148	1
1	"other.american.11"	1	5	19	5	"contribution"	4	17	148	1
1	"other.american.11"	1	5	20	5	"contribution"	4	20	148	1
1	"other.american.11"	1	6	21	5	"contribution"	4	17	99	1
1	"other.american.11"	1	6	22	5	"contribution"	4	19	99	1
1	"other.american.11"	1	6	23	5	"contribution"	3	15	99	1
1	"other.american.11"	1	6	24	5	"contribution"	4	20	99	1
1	"other.american.11"	1	1	1	6	"contribution"	2	8	93	1
1	"other.american.11"	1	1	2	6	"contribution"	4	15	93	1
1	"other.american.11"	1	1	3	6	"contribution"	4	16	93	1
1	"other.american.11"	1	1	4	6	"contribution"	2	11	93	1
1	"other.american.11"	1	2	5	6	"contribution"	4	23	150	1
1	"other.american.11"	1	2	6	6	"contribution"	3	22	150	1
1	"other.american.11"	1	2	7	6	"contribution"	4	21	150	1
1	"other.american.11"	1	2	8	6	"contribution"	4	21	150	1
1	"other.american.11"	1	3	9	6	"contribution"	2	19	83	1
1	"other.american.11"	1	3	10	6	"contribution"	3	17	83	1
1	"other.american.11"	1	3	11	6	"contribution"	2	14	83	1
1	"other.american.11"	1	3	12	6	"contribution"	2	16	83	1
1	"other.american.11"	1	4	13	6	"contribution"	4	21	150	1
1	"other.american.11"	1	4	14	6	"contribution"	3	20	150	1
1	"other.american.11"	1	4	15	6	"contribution"	4	24	150	1
1	"other.american.11"	1	4	16	6	"contribution"	4	24	150	1
1	"other.american.11"	1	5	17	6	"contribution"	4	24	148	1
1	"other.american.11"	1	5	18	6	"contribution"	4	23	148	1
1	"other.american.11"	1	5	19	6	"contribution"	4	21	148	1
1	"other.american.11"	1	5	20	6	"contribution"	4	24	148	1
1	"other.american.11"	1	6	21	6	"contribution"	2	19	99	1
1	"other.american.11"	1	6	22	6	"contribution"	3	22	99	1
1	"other.american.11"	1	6	23	6	"contribution"	4	19	99	1
1	"other.american.11"	1	6	24	6	"contribution"	2	22	99	1
1	"other.american.11"	1	1	1	7	"contribution"	2	10	93	1
1	"other.american.11"	1	1	2	7	"contribution"	3	18	93	1
1	"other.american.11"	1	1	3	7	"contribution"	4	20	93	1
1	"other.american.11"	1	1	4	7	"contribution"	3	14	93	1
1	"other.american.11"	1	2	5	7	"contribution"	4	27	150	1
1	"other.american.11"	1	2	6	7	"contribution"	4	26	150	1
1	"other.american.11"	1	2	7	7	"contribution"	4	25	150	1
1	"other.american.11"	1	2	8	7	"contribution"	4	25	150	1
1	"other.american.11"	1	3	9	7	"contribution"	4	23	83	1
1	"other.american.11"	1	3	10	7	"contribution"	2	19	83	1
1	"other.american.11"	1	3	11	7	"contribution"	3	17	83	1
1	"other.american.11"	1	3	12	7	"contribution"	1	17	83	1
1	"other.american.11"	1	4	13	7	"contribution"	4	25	150	1
1	"other.american.11"	1	4	14	7	"contribution"	4	24	150	1
1	"other.american.11"	1	4	15	7	"contribution"	4	28	150	1
1	"other.american.11"	1	4	16	7	"contribution"	4	28	150	1
1	"other.american.11"	1	5	17	7	"contribution"	4	28	148	1
1	"other.american.11"	1	5	18	7	"contribution"	4	27	148	1
1	"other.american.11"	1	5	19	7	"contribution"	4	25	148	1
1	"other.american.11"	1	5	20	7	"contribution"	4	28	148	1
1	"other.american.11"	1	6	21	7	"contribution"	2	21	99	1
1	"other.american.11"	1	6	22	7	"contribution"	2	24	99	1
1	"other.american.11"	1	6	23	7	"contribution"	2	21	99	1
1	"other.american.11"	1	6	24	7	"contribution"	2	24	99	1
1	"other.american.11"	1	1	1	8	"contribution"	0	10	93	1
1	"other.american.11"	1	1	2	8	"contribution"	3	21	93	1
1	"other.american.11"	1	1	3	8	"contribution"	4	24	93	1
1	"other.american.11"	1	1	4	8	"contribution"	3	17	93	1
1	"other.american.11"	1	2	5	8	"contribution"	3	30	150	1
1	"other.american.11"	1	2	6	8	"contribution"	4	30	150	1
1	"other.american.11"	1	2	7	8	"contribution"	4	29	150	1
1	"other.american.11"	1	2	8	8	"contribution"	4	29	150	1
1	"other.american.11"	1	3	9	8	"contribution"	2	25	83	1
1	"other.american.11"	1	3	10	8	"contribution"	0	19	83	1
1	"other.american.11"	1	3	11	8	"contribution"	3	20	83	1
1	"other.american.11"	1	3	12	8	"contribution"	0	17	83	1
1	"other.american.11"	1	4	13	8	"contribution"	4	29	150	1
1	"other.american.11"	1	4	14	8	"contribution"	4	28	150	1
1	"other.american.11"	1	4	15	8	"contribution"	4	32	150	1
1	"other.american.11"	1	4	16	8	"contribution"	4	32	150	1
1	"other.american.11"	1	5	17	8	"contribution"	4	32	148	1
1	"other.american.11"	1	5	18	8	"contribution"	4	31	148	1
1	"other.american.11"	1	5	19	8	"contribution"	4	29	148	1
1	"other.american.11"	1	5	20	8	"contribution"	4	32	148	1
1	"other.american.11"	1	6	21	8	"contribution"	1	22	99	1
1	"other.american.11"	1	6	22	8	"contribution"	1	25	99	1
1	"other.american.11"	1	6	23	8	"contribution"	2	23	99	1
1	"other.american.11"	1	6	24	8	"contribution"	0	24	99	1
1	"other.american.11"	1	1	1	9	"contribution"	4	14	93	1
1	"other.american.11"	1	1	2	9	"contribution"	3	24	93	1
1	"other.american.11"	1	1	3	9	"contribution"	4	28	93	1
1	"other.american.11"	1	1	4	9	"contribution"	3	20	93	1
1	"other.american.11"	1	2	5	9	"contribution"	4	34	150	1
1	"other.american.11"	1	2	6	9	"contribution"	4	34	150	1
1	"other.american.11"	1	2	7	9	"contribution"	4	33	150	1
1	"other.american.11"	1	2	8	9	"contribution"	4	33	150	1
1	"other.american.11"	1	3	9	9	"contribution"	1	26	83	1
1	"other.american.11"	1	3	10	9	"contribution"	1	20	83	1
1	"other.american.11"	1	3	11	9	"contribution"	1	21	83	1
1	"other.american.11"	1	3	12	9	"contribution"	0	17	83	1
1	"other.american.11"	1	4	13	9	"contribution"	4	33	150	1
1	"other.american.11"	1	4	14	9	"contribution"	4	32	150	1
1	"other.american.11"	1	4	15	9	"contribution"	4	36	150	1
1	"other.american.11"	1	4	16	9	"contribution"	4	36	150	1
1	"other.american.11"	1	5	17	9	"contribution"	4	36	148	1
1	"other.american.11"	1	5	18	9	"contribution"	4	35	148	1
1	"other.american.11"	1	5	19	9	"contribution"	4	33	148	1
1	"other.american.11"	1	5	20	9	"contribution"	4	36	148	1
1	"other.american.11"	1	6	21	9	"contribution"	3	25	99	1
1	"other.american.11"	1	6	22	9	"contribution"	2	27	99	1
1	"other.american.11"	1	6	23	9	"contribution"	1	24	99	1
1	"other.american.11"	1	6	24	9	"contribution"	1	25	99	1
1	"other.american.11"	1	1	1	10	"contribution"	2	16	93	1
1	"other.american.11"	1	1	2	10	"contribution"	2	26	93	1
1	"other.american.11"	1	1	3	10	"contribution"	1	29	93	1
1	"other.american.11"	1	1	4	10	"contribution"	3	23	93	1
1	"other.american.11"	1	2	5	10	"contribution"	4	38	150	1
1	"other.american.11"	1	2	6	10	"contribution"	4	38	150	1
1	"other.american.11"	1	2	7	10	"contribution"	4	37	150	1
1	"other.american.11"	1	2	8	10	"contribution"	4	37	150	1
1	"other.american.11"	1	3	9	10	"contribution"	0	26	83	1
1	"other.american.11"	1	3	10	10	"contribution"	0	20	83	1
1	"other.american.11"	1	3	11	10	"contribution"	0	21	83	1
1	"other.american.11"	1	3	12	10	"contribution"	0	17	83	1
1	"other.american.11"	1	4	13	10	"contribution"	4	37	150	1
1	"other.american.11"	1	4	14	10	"contribution"	4	36	150	1
1	"other.american.11"	1	4	15	10	"contribution"	4	40	150	1
1	"other.american.11"	1	4	16	10	"contribution"	4	40	150	1
1	"other.american.11"	1	5	17	10	"contribution"	3	39	148	1
1	"other.american.11"	1	5	18	10	"contribution"	4	39	148	1
1	"other.american.11"	1	5	19	10	"contribution"	2	35	148	1
1	"other.american.11"	1	5	20	10	"contribution"	3	39	148	1
1	"other.american.11"	1	6	21	10	"contribution"	2	27	99	1
1	"other.american.11"	1	6	22	10	"contribution"	0	27	99	1
1	"other.american.11"	1	6	23	10	"contribution"	0	24	99	1
1	"other.american.11"	1	6	24	10	"contribution"	0	25	99	1
1	"other.american.11"	3	7	25	1	"extraction"	4	4	121	1
1	"other.american.11"	3	7	26	1	"extraction"	4	4	121	1
1	"other.american.11"	3	7	27	1	"extraction"	2	2	121	1
1	"other.american.11"	3	7	28	1	"extraction"	4	4	121	1
1	"other.american.11"	3	8	29	1	"extraction"	2	2	121	0
1	"other.american.11"	3	8	30	1	"extraction"	2	2	121	0
1	"other.american.11"	3	8	31	1	"extraction"	2	2	121	0
1	"other.american.11"	3	8	32	1	"extraction"	4	4	121	0
1	"other.american.11"	3	9	33	1	"extraction"	4	4	154	1
1	"other.american.11"	3	9	34	1	"extraction"	4	4	154	1
1	"other.american.11"	3	9	35	1	"extraction"	4	4	154	1
1	"other.american.11"	3	9	36	1	"extraction"	4	4	154	1
1	"other.american.11"	3	10	37	1	"extraction"	4	4	111	1
1	"other.american.11"	3	10	38	1	"extraction"	3	3	111	1
1	"other.american.11"	3	10	39	1	"extraction"	3	3	111	1
1	"other.american.11"	3	10	40	1	"extraction"	4	4	111	1
1	"other.american.11"	3	11	41	1	"extraction"	2	2	75	1
1	"other.american.11"	3	11	42	1	"extraction"	4	4	75	1
1	"other.american.11"	3	11	43	1	"extraction"	2	2	75	1
1	"other.american.11"	3	11	44	1	"extraction"	4	4	75	1
1	"other.american.11"	3	12	45	1	"extraction"	4	4	106	1
1	"other.american.11"	3	12	46	1	"extraction"	4	4	106	1
1	"other.american.11"	3	12	47	1	"extraction"	3	3	106	1
1	"other.american.11"	3	12	48	1	"extraction"	4	4	106	1
1	"other.american.11"	3	7	25	2	"extraction"	4	8	121	1
1	"other.american.11"	3	7	26	2	"extraction"	2	6	121	1
1	"other.american.11"	3	7	27	2	"extraction"	4	6	121	1
1	"other.american.11"	3	7	28	2	"extraction"	3	7	121	1
1	"other.american.11"	3	8	29	2	"extraction"	2	4	121	0
1	"other.american.11"	3	8	30	2	"extraction"	2	4	121	0
1	"other.american.11"	3	8	31	2	"extraction"	1	3	121	0
1	"other.american.11"	3	8	32	2	"extraction"	4	8	121	0
1	"other.american.11"	3	9	33	2	"extraction"	4	8	154	1
1	"other.american.11"	3	9	34	2	"extraction"	4	8	154	1
1	"other.american.11"	3	9	35	2	"extraction"	4	8	154	1
1	"other.american.11"	3	9	36	2	"extraction"	4	8	154	1
1	"other.american.11"	3	10	37	2	"extraction"	4	8	111	1
1	"other.american.11"	3	10	38	2	"extraction"	3	6	111	1
1	"other.american.11"	3	10	39	2	"extraction"	2	5	111	1
1	"other.american.11"	3	10	40	2	"extraction"	4	8	111	1
1	"other.american.11"	3	11	41	2	"extraction"	3	5	75	1
1	"other.american.11"	3	11	42	2	"extraction"	4	8	75	1
1	"other.american.11"	3	11	43	2	"extraction"	2	4	75	1
1	"other.american.11"	3	11	44	2	"extraction"	4	8	75	1
1	"other.american.11"	3	12	45	2	"extraction"	4	8	106	1
1	"other.american.11"	3	12	46	2	"extraction"	4	8	106	1
1	"other.american.11"	3	12	47	2	"extraction"	4	7	106	1
1	"other.american.11"	3	12	48	2	"extraction"	4	8	106	1
1	"other.american.11"	3	7	25	3	"extraction"	4	12	121	1
1	"other.american.11"	3	7	26	3	"extraction"	4	10	121	1
1	"other.american.11"	3	7	27	3	"extraction"	2	8	121	1
1	"other.american.11"	3	7	28	3	"extraction"	4	11	121	1
1	"other.american.11"	3	8	29	3	"extraction"	1	5	121	0
1	"other.american.11"	3	8	30	3	"extraction"	2	6	121	0
1	"other.american.11"	3	8	31	3	"extraction"	3	6	121	0
1	"other.american.11"	3	8	32	3	"extraction"	4	12	121	0
1	"other.american.11"	3	9	33	3	"extraction"	4	12	154	1
1	"other.american.11"	3	9	34	3	"extraction"	4	12	154	1
1	"other.american.11"	3	9	35	3	"extraction"	4	12	154	1
1	"other.american.11"	3	9	36	3	"extraction"	4	12	154	1
1	"other.american.11"	3	10	37	3	"extraction"	4	12	111	1
1	"other.american.11"	3	10	38	3	"extraction"	3	9	111	1
1	"other.american.11"	3	10	39	3	"extraction"	4	9	111	1
1	"other.american.11"	3	10	40	3	"extraction"	4	12	111	1
1	"other.american.11"	3	11	41	3	"extraction"	3	8	75	1
1	"other.american.11"	3	11	42	3	"extraction"	3	11	75	1
1	"other.american.11"	3	11	43	3	"extraction"	2	6	75	1
1	"other.american.11"	3	11	44	3	"extraction"	4	12	75	1
1	"other.american.11"	3	12	45	3	"extraction"	4	12	106	1
1	"other.american.11"	3	12	46	3	"extraction"	4	12	106	1
1	"other.american.11"	3	12	47	3	"extraction"	4	11	106	1
1	"other.american.11"	3	12	48	3	"extraction"	4	12	106	1
1	"other.american.11"	3	7	25	4	"extraction"	4	16	121	1
1	"other.american.11"	3	7	26	4	"extraction"	2	12	121	1
1	"other.american.11"	3	7	27	4	"extraction"	3	11	121	1
1	"other.american.11"	3	7	28	4	"extraction"	3	14	121	1
1	"other.american.11"	3	8	29	4	"extraction"	2	7	121	0
1	"other.american.11"	3	8	30	4	"extraction"	4	10	121	0
1	"other.american.11"	3	8	31	4	"extraction"	3	9	121	0
1	"other.american.11"	3	8	32	4	"extraction"	4	16	121	0
1	"other.american.11"	3	9	33	4	"extraction"	4	16	154	1
1	"other.american.11"	3	9	34	4	"extraction"	4	16	154	1
1	"other.american.11"	3	9	35	4	"extraction"	4	16	154	1
1	"other.american.11"	3	9	36	4	"extraction"	4	16	154	1
1	"other.american.11"	3	10	37	4	"extraction"	4	16	111	1
1	"other.american.11"	3	10	38	4	"extraction"	3	12	111	1
1	"other.american.11"	3	10	39	4	"extraction"	0	9	111	1
1	"other.american.11"	3	10	40	4	"extraction"	4	16	111	1
1	"other.american.11"	3	11	41	4	"extraction"	4	12	75	1
1	"other.american.11"	3	11	42	4	"extraction"	4	15	75	1
1	"other.american.11"	3	11	43	4	"extraction"	2	8	75	1
1	"other.american.11"	3	11	44	4	"extraction"	4	16	75	1
1	"other.american.11"	3	12	45	4	"extraction"	4	16	106	1
1	"other.american.11"	3	12	46	4	"extraction"	4	16	106	1
1	"other.american.11"	3	12	47	4	"extraction"	4	15	106	1
1	"other.american.11"	3	12	48	4	"extraction"	4	16	106	1
1	"other.american.11"	3	7	25	5	"extraction"	4	20	121	1
1	"other.american.11"	3	7	26	5	"extraction"	4	16	121	1
1	"other.american.11"	3	7	27	5	"extraction"	3	14	121	1
1	"other.american.11"	3	7	28	5	"extraction"	3	17	121	1
1	"other.american.11"	3	8	29	5	"extraction"	2	9	121	0
1	"other.american.11"	3	8	30	5	"extraction"	2	12	121	0
1	"other.american.11"	3	8	31	5	"extraction"	4	13	121	0
1	"other.american.11"	3	8	32	5	"extraction"	4	20	121	0
1	"other.american.11"	3	9	33	5	"extraction"	4	20	154	1
1	"other.american.11"	3	9	34	5	"extraction"	4	20	154	1
1	"other.american.11"	3	9	35	5	"extraction"	4	20	154	1
1	"other.american.11"	3	9	36	5	"extraction"	4	20	154	1
1	"other.american.11"	3	10	37	5	"extraction"	4	20	111	1
1	"other.american.11"	3	10	38	5	"extraction"	3	15	111	1
1	"other.american.11"	3	10	39	5	"extraction"	4	13	111	1
1	"other.american.11"	3	10	40	5	"extraction"	4	20	111	1
1	"other.american.11"	3	11	41	5	"extraction"	3	15	75	1
1	"other.american.11"	3	11	42	5	"extraction"	4	19	75	1
1	"other.american.11"	3	11	43	5	"extraction"	2	10	75	1
1	"other.american.11"	3	11	44	5	"extraction"	4	20	75	1
1	"other.american.11"	3	12	45	5	"extraction"	4	20	106	1
1	"other.american.11"	3	12	46	5	"extraction"	4	20	106	1
1	"other.american.11"	3	12	47	5	"extraction"	4	19	106	1
1	"other.american.11"	3	12	48	5	"extraction"	4	20	106	1
1	"other.american.11"	3	7	25	6	"extraction"	4	24	121	1
1	"other.american.11"	3	7	26	6	"extraction"	2	18	121	1
1	"other.american.11"	3	7	27	6	"extraction"	4	18	121	1
1	"other.american.11"	3	7	28	6	"extraction"	4	21	121	1
1	"other.american.11"	3	8	29	6	"extraction"	3	12	121	0
1	"other.american.11"	3	8	30	6	"extraction"	1	13	121	0
1	"other.american.11"	3	8	31	6	"extraction"	4	17	121	0
1	"other.american.11"	3	8	32	6	"extraction"	4	24	121	0
1	"other.american.11"	3	9	33	6	"extraction"	4	24	154	1
1	"other.american.11"	3	9	34	6	"extraction"	4	24	154	1
1	"other.american.11"	3	9	35	6	"extraction"	4	24	154	1
1	"other.american.11"	3	9	36	6	"extraction"	0	20	154	1
1	"other.american.11"	3	10	37	6	"extraction"	4	24	111	1
1	"other.american.11"	3	10	38	6	"extraction"	3	18	111	1
1	"other.american.11"	3	10	39	6	"extraction"	4	17	111	1
1	"other.american.11"	3	10	40	6	"extraction"	4	24	111	1
1	"other.american.11"	3	11	41	6	"extraction"	3	18	75	1
1	"other.american.11"	3	11	42	6	"extraction"	4	23	75	1
1	"other.american.11"	3	11	43	6	"extraction"	2	12	75	1
1	"other.american.11"	3	11	44	6	"extraction"	4	24	75	1
1	"other.american.11"	3	12	45	6	"extraction"	4	24	106	1
1	"other.american.11"	3	12	46	6	"extraction"	4	24	106	1
1	"other.american.11"	3	12	47	6	"extraction"	4	23	106	1
1	"other.american.11"	3	12	48	6	"extraction"	4	24	106	1
1	"other.american.11"	3	7	25	7	"extraction"	4	28	121	1
1	"other.american.11"	3	7	26	7	"extraction"	4	22	121	1
1	"other.american.11"	3	7	27	7	"extraction"	3	21	121	1
1	"other.american.11"	3	7	28	7	"extraction"	4	25	121	1
1	"other.american.11"	3	8	29	7	"extraction"	2	14	121	0
1	"other.american.11"	3	8	30	7	"extraction"	2	15	121	0
1	"other.american.11"	3	8	31	7	"extraction"	2	19	121	0
1	"other.american.11"	3	8	32	7	"extraction"	4	28	121	0
1	"other.american.11"	3	9	33	7	"extraction"	4	28	154	1
1	"other.american.11"	3	9	34	7	"extraction"	4	28	154	1
1	"other.american.11"	3	9	35	7	"extraction"	4	28	154	1
1	"other.american.11"	3	9	36	7	"extraction"	2	22	154	1
1	"other.american.11"	3	10	37	7	"extraction"	4	28	111	1
1	"other.american.11"	3	10	38	7	"extraction"	3	21	111	1
1	"other.american.11"	3	10	39	7	"extraction"	3	20	111	1
1	"other.american.11"	3	10	40	7	"extraction"	4	28	111	1
1	"other.american.11"	3	11	41	7	"extraction"	3	21	75	1
1	"other.american.11"	3	11	42	7	"extraction"	3	26	75	1
1	"other.american.11"	3	11	43	7	"extraction"	2	14	75	1
1	"other.american.11"	3	11	44	7	"extraction"	4	28	75	1
1	"other.american.11"	3	12	45	7	"extraction"	4	28	106	1
1	"other.american.11"	3	12	46	7	"extraction"	4	28	106	1
1	"other.american.11"	3	12	47	7	"extraction"	4	27	106	1
1	"other.american.11"	3	12	48	7	"extraction"	4	28	106	1
1	"other.american.11"	3	7	25	8	"extraction"	4	32	121	1
1	"other.american.11"	3	7	26	8	"extraction"	2	24	121	1
1	"other.american.11"	3	7	27	8	"extraction"	4	25	121	1
1	"other.american.11"	3	7	28	8	"extraction"	3	28	121	1
1	"other.american.11"	3	8	29	8	"extraction"	3	17	121	0
1	"other.american.11"	3	8	30	8	"extraction"	2	17	121	0
1	"other.american.11"	3	8	31	8	"extraction"	1	20	121	0
1	"other.american.11"	3	8	32	8	"extraction"	4	32	121	0
1	"other.american.11"	3	9	33	8	"extraction"	4	32	154	1
1	"other.american.11"	3	9	34	8	"extraction"	2	30	154	1
1	"other.american.11"	3	9	35	8	"extraction"	4	32	154	1
1	"other.american.11"	3	9	36	8	"extraction"	2	24	154	1
1	"other.american.11"	3	10	37	8	"extraction"	4	32	111	1
1	"other.american.11"	3	10	38	8	"extraction"	3	24	111	1
1	"other.american.11"	3	10	39	8	"extraction"	4	24	111	1
1	"other.american.11"	3	10	40	8	"extraction"	4	32	111	1
1	"other.american.11"	3	11	41	8	"extraction"	4	25	75	1
1	"other.american.11"	3	11	42	8	"extraction"	4	30	75	1
1	"other.american.11"	3	11	43	8	"extraction"	3	17	75	1
1	"other.american.11"	3	11	44	8	"extraction"	4	32	75	1
1	"other.american.11"	3	12	45	8	"extraction"	4	32	106	1
1	"other.american.11"	3	12	46	8	"extraction"	4	32	106	1
1	"other.american.11"	3	12	47	8	"extraction"	4	31	106	1
1	"other.american.11"	3	12	48	8	"extraction"	4	32	106	1
1	"other.american.11"	3	7	25	9	"extraction"	4	36	121	1
1	"other.american.11"	3	7	26	9	"extraction"	4	28	121	1
1	"other.american.11"	3	7	27	9	"extraction"	4	29	121	1
1	"other.american.11"	3	7	28	9	"extraction"	2	30	121	1
1	"other.american.11"	3	8	29	9	"extraction"	2	19	121	0
1	"other.american.11"	3	8	30	9	"extraction"	4	21	121	0
1	"other.american.11"	3	8	31	9	"extraction"	2	22	121	0
1	"other.american.11"	3	8	32	9	"extraction"	4	36	121	0
1	"other.american.11"	3	9	33	9	"extraction"	4	36	154	1
1	"other.american.11"	3	9	34	9	"extraction"	2	32	154	1
1	"other.american.11"	3	9	35	9	"extraction"	4	36	154	1
1	"other.american.11"	3	9	36	9	"extraction"	2	26	154	1
1	"other.american.11"	3	10	37	9	"extraction"	4	36	111	1
1	"other.american.11"	3	10	38	9	"extraction"	3	27	111	1
1	"other.american.11"	3	10	39	9	"extraction"	4	28	111	1
1	"other.american.11"	3	10	40	9	"extraction"	4	36	111	1
1	"other.american.11"	3	11	41	9	"extraction"	3	28	75	1
1	"other.american.11"	3	11	42	9	"extraction"	4	34	75	1
1	"other.american.11"	3	11	43	9	"extraction"	4	21	75	1
1	"other.american.11"	3	11	44	9	"extraction"	4	36	75	1
1	"other.american.11"	3	12	45	9	"extraction"	4	36	106	1
1	"other.american.11"	3	12	46	9	"extraction"	4	36	106	1
1	"other.american.11"	3	12	47	9	"extraction"	4	35	106	1
1	"other.american.11"	3	12	48	9	"extraction"	4	36	106	1
1	"other.american.11"	3	7	25	10	"extraction"	4	40	121	1
1	"other.american.11"	3	7	26	10	"extraction"	2	30	121	1
1	"other.american.11"	3	7	27	10	"extraction"	3	32	121	1
1	"other.american.11"	3	7	28	10	"extraction"	4	34	121	1
1	"other.american.11"	3	8	29	10	"extraction"	2	21	121	0
1	"other.american.11"	3	8	30	10	"extraction"	4	25	121	0
1	"other.american.11"	3	8	31	10	"extraction"	3	25	121	0
1	"other.american.11"	3	8	32	10	"extraction"	4	40	121	0
1	"other.american.11"	3	9	33	10	"extraction"	4	40	154	1
1	"other.american.11"	3	9	34	10	"extraction"	2	34	154	1
1	"other.american.11"	3	9	35	10	"extraction"	4	40	154	1
1	"other.american.11"	3	9	36	10	"extraction"	2	28	154	1
1	"other.american.11"	3	10	37	10	"extraction"	4	40	111	1
1	"other.american.11"	3	10	38	10	"extraction"	3	30	111	1
1	"other.american.11"	3	10	39	10	"extraction"	4	32	111	1
1	"other.american.11"	3	10	40	10	"extraction"	4	40	111	1
1	"other.american.11"	3	11	41	10	"extraction"	4	32	75	1
1	"other.american.11"	3	11	42	10	"extraction"	4	38	75	1
1	"other.american.11"	3	11	43	10	"extraction"	2	23	75	1
1	"other.american.11"	3	11	44	10	"extraction"	4	40	75	1
1	"other.american.11"	3	12	45	10	"extraction"	4	40	106	1
1	"other.american.11"	3	12	46	10	"extraction"	4	40	106	1
1	"other.american.11"	3	12	47	10	"extraction"	4	39	106	1
1	"other.american.11"	3	12	48	10	"extraction"	4	40	106	1
1	"other.american.11"	3	7	25	1	"contribution"	4	4	121	1
1	"other.american.11"	3	7	26	1	"contribution"	4	4	121	1
1	"other.american.11"	3	7	27	1	"contribution"	4	4	121	1
1	"other.american.11"	3	7	28	1	"contribution"	3	3	121	1
1	"other.american.11"	3	8	29	1	"contribution"	2	2	121	0
1	"other.american.11"	3	8	30	1	"contribution"	4	4	121	0
1	"other.american.11"	3	8	31	1	"contribution"	3	3	121	0
1	"other.american.11"	3	8	32	1	"contribution"	4	4	121	0
1	"other.american.11"	3	9	33	1	"contribution"	3	3	154	1
1	"other.american.11"	3	9	34	1	"contribution"	4	4	154	1
1	"other.american.11"	3	9	35	1	"contribution"	4	4	154	1
1	"other.american.11"	3	9	36	1	"contribution"	0	0	154	1
1	"other.american.11"	3	10	37	1	"contribution"	3	3	111	1
1	"other.american.11"	3	10	38	1	"contribution"	3	3	111	1
1	"other.american.11"	3	10	39	1	"contribution"	2	2	111	1
1	"other.american.11"	3	10	40	1	"contribution"	4	4	111	1
1	"other.american.11"	3	11	41	1	"contribution"	3	3	75	1
1	"other.american.11"	3	11	42	1	"contribution"	3	3	75	1
1	"other.american.11"	3	11	43	1	"contribution"	2	2	75	1
1	"other.american.11"	3	11	44	1	"contribution"	3	3	75	1
1	"other.american.11"	3	12	45	1	"contribution"	4	4	106	1
1	"other.american.11"	3	12	46	1	"contribution"	2	2	106	1
1	"other.american.11"	3	12	47	1	"contribution"	2	2	106	1
1	"other.american.11"	3	12	48	1	"contribution"	2	2	106	1
1	"other.american.11"	3	7	25	2	"contribution"	4	8	121	1
1	"other.american.11"	3	7	26	2	"contribution"	4	8	121	1
1	"other.american.11"	3	7	27	2	"contribution"	4	8	121	1
1	"other.american.11"	3	7	28	2	"contribution"	3	6	121	1
1	"other.american.11"	3	8	29	2	"contribution"	2	4	121	0
1	"other.american.11"	3	8	30	2	"contribution"	4	8	121	0
1	"other.american.11"	3	8	31	2	"contribution"	3	6	121	0
1	"other.american.11"	3	8	32	2	"contribution"	4	8	121	0
1	"other.american.11"	3	9	33	2	"contribution"	4	7	154	1
1	"other.american.11"	3	9	34	2	"contribution"	4	8	154	1
1	"other.american.11"	3	9	35	2	"contribution"	4	8	154	1
1	"other.american.11"	3	9	36	2	"contribution"	4	4	154	1
1	"other.american.11"	3	10	37	2	"contribution"	3	6	111	1
1	"other.american.11"	3	10	38	2	"contribution"	3	6	111	1
1	"other.american.11"	3	10	39	2	"contribution"	3	5	111	1
1	"other.american.11"	3	10	40	2	"contribution"	3	7	111	1
1	"other.american.11"	3	11	41	2	"contribution"	3	6	75	1
1	"other.american.11"	3	11	42	2	"contribution"	4	7	75	1
1	"other.american.11"	3	11	43	2	"contribution"	0	2	75	1
1	"other.american.11"	3	11	44	2	"contribution"	4	7	75	1
1	"other.american.11"	3	12	45	2	"contribution"	4	8	106	1
1	"other.american.11"	3	12	46	2	"contribution"	3	5	106	1
1	"other.american.11"	3	12	47	2	"contribution"	2	4	106	1
1	"other.american.11"	3	12	48	2	"contribution"	2	4	106	1
1	"other.american.11"	3	7	25	3	"contribution"	4	12	121	1
1	"other.american.11"	3	7	26	3	"contribution"	4	12	121	1
1	"other.american.11"	3	7	27	3	"contribution"	4	12	121	1
1	"other.american.11"	3	7	28	3	"contribution"	4	10	121	1
1	"other.american.11"	3	8	29	3	"contribution"	2	6	121	0
1	"other.american.11"	3	8	30	3	"contribution"	4	12	121	0
1	"other.american.11"	3	8	31	3	"contribution"	4	10	121	0
1	"other.american.11"	3	8	32	3	"contribution"	4	12	121	0
1	"other.american.11"	3	9	33	3	"contribution"	4	11	154	1
1	"other.american.11"	3	9	34	3	"contribution"	4	12	154	1
1	"other.american.11"	3	9	35	3	"contribution"	4	12	154	1
1	"other.american.11"	3	9	36	3	"contribution"	4	8	154	1
1	"other.american.11"	3	10	37	3	"contribution"	3	9	111	1
1	"other.american.11"	3	10	38	3	"contribution"	3	9	111	1
1	"other.american.11"	3	10	39	3	"contribution"	4	9	111	1
1	"other.american.11"	3	10	40	3	"contribution"	3	10	111	1
1	"other.american.11"	3	11	41	3	"contribution"	2	8	75	1
1	"other.american.11"	3	11	42	3	"contribution"	3	10	75	1
1	"other.american.11"	3	11	43	3	"contribution"	0	2	75	1
1	"other.american.11"	3	11	44	3	"contribution"	4	11	75	1
1	"other.american.11"	3	12	45	3	"contribution"	4	12	106	1
1	"other.american.11"	3	12	46	3	"contribution"	4	9	106	1
1	"other.american.11"	3	12	47	3	"contribution"	2	6	106	1
1	"other.american.11"	3	12	48	3	"contribution"	2	6	106	1
1	"other.american.11"	3	7	25	4	"contribution"	4	16	121	1
1	"other.american.11"	3	7	26	4	"contribution"	4	16	121	1
1	"other.american.11"	3	7	27	4	"contribution"	4	16	121	1
1	"other.american.11"	3	7	28	4	"contribution"	4	14	121	1
1	"other.american.11"	3	8	29	4	"contribution"	2	8	121	0
1	"other.american.11"	3	8	30	4	"contribution"	4	16	121	0
1	"other.american.11"	3	8	31	4	"contribution"	1	11	121	0
1	"other.american.11"	3	8	32	4	"contribution"	2	14	121	0
1	"other.american.11"	3	9	33	4	"contribution"	4	15	154	1
1	"other.american.11"	3	9	34	4	"contribution"	4	16	154	1
1	"other.american.11"	3	9	35	4	"contribution"	4	16	154	1
1	"other.american.11"	3	9	36	4	"contribution"	4	12	154	1
1	"other.american.11"	3	10	37	4	"contribution"	3	12	111	1
1	"other.american.11"	3	10	38	4	"contribution"	3	12	111	1
1	"other.american.11"	3	10	39	4	"contribution"	4	13	111	1
1	"other.american.11"	3	10	40	4	"contribution"	3	13	111	1
1	"other.american.11"	3	11	41	4	"contribution"	0	8	75	1
1	"other.american.11"	3	11	42	4	"contribution"	4	14	75	1
1	"other.american.11"	3	11	43	4	"contribution"	2	4	75	1
1	"other.american.11"	3	11	44	4	"contribution"	4	15	75	1
1	"other.american.11"	3	12	45	4	"contribution"	4	16	106	1
1	"other.american.11"	3	12	46	4	"contribution"	4	13	106	1
1	"other.american.11"	3	12	47	4	"contribution"	3	9	106	1
1	"other.american.11"	3	12	48	4	"contribution"	2	8	106	1
1	"other.american.11"	3	7	25	5	"contribution"	4	20	121	1
1	"other.american.11"	3	7	26	5	"contribution"	2	18	121	1
1	"other.american.11"	3	7	27	5	"contribution"	4	20	121	1
1	"other.american.11"	3	7	28	5	"contribution"	4	18	121	1
1	"other.american.11"	3	8	29	5	"contribution"	2	10	121	0
1	"other.american.11"	3	8	30	5	"contribution"	4	20	121	0
1	"other.american.11"	3	8	31	5	"contribution"	1	12	121	0
1	"other.american.11"	3	8	32	5	"contribution"	4	18	121	0
1	"other.american.11"	3	9	33	5	"contribution"	4	19	154	1
1	"other.american.11"	3	9	34	5	"contribution"	4	20	154	1
1	"other.american.11"	3	9	35	5	"contribution"	4	20	154	1
1	"other.american.11"	3	9	36	5	"contribution"	4	16	154	1
1	"other.american.11"	3	10	37	5	"contribution"	4	16	111	1
1	"other.american.11"	3	10	38	5	"contribution"	3	15	111	1
1	"other.american.11"	3	10	39	5	"contribution"	2	15	111	1
1	"other.american.11"	3	10	40	5	"contribution"	3	16	111	1
1	"other.american.11"	3	11	41	5	"contribution"	2	10	75	1
1	"other.american.11"	3	11	42	5	"contribution"	3	17	75	1
1	"other.american.11"	3	11	43	5	"contribution"	0	4	75	1
1	"other.american.11"	3	11	44	5	"contribution"	4	19	75	1
1	"other.american.11"	3	12	45	5	"contribution"	4	20	106	1
1	"other.american.11"	3	12	46	5	"contribution"	4	17	106	1
1	"other.american.11"	3	12	47	5	"contribution"	3	12	106	1
1	"other.american.11"	3	12	48	5	"contribution"	2	10	106	1
1	"other.american.11"	3	7	25	6	"contribution"	4	24	121	1
1	"other.american.11"	3	7	26	6	"contribution"	4	22	121	1
1	"other.american.11"	3	7	27	6	"contribution"	4	24	121	1
1	"other.american.11"	3	7	28	6	"contribution"	3	21	121	1
1	"other.american.11"	3	8	29	6	"contribution"	2	12	121	0
1	"other.american.11"	3	8	30	6	"contribution"	3	23	121	0
1	"other.american.11"	3	8	31	6	"contribution"	0	12	121	0
1	"other.american.11"	3	8	32	6	"contribution"	4	22	121	0
1	"other.american.11"	3	9	33	6	"contribution"	4	23	154	1
1	"other.american.11"	3	9	34	6	"contribution"	4	24	154	1
1	"other.american.11"	3	9	35	6	"contribution"	4	24	154	1
1	"other.american.11"	3	9	36	6	"contribution"	4	20	154	1
1	"other.american.11"	3	10	37	6	"contribution"	2	18	111	1
1	"other.american.11"	3	10	38	6	"contribution"	3	18	111	1
1	"other.american.11"	3	10	39	6	"contribution"	3	18	111	1
1	"other.american.11"	3	10	40	6	"contribution"	3	19	111	1
1	"other.american.11"	3	11	41	6	"contribution"	2	12	75	1
1	"other.american.11"	3	11	42	6	"contribution"	4	21	75	1
1	"other.american.11"	3	11	43	6	"contribution"	2	6	75	1
1	"other.american.11"	3	11	44	6	"contribution"	4	23	75	1
1	"other.american.11"	3	12	45	6	"contribution"	4	24	106	1
1	"other.american.11"	3	12	46	6	"contribution"	4	21	106	1
1	"other.american.11"	3	12	47	6	"contribution"	4	16	106	1
1	"other.american.11"	3	12	48	6	"contribution"	2	12	106	1
1	"other.american.11"	3	7	25	7	"contribution"	4	28	121	1
1	"other.american.11"	3	7	26	7	"contribution"	4	26	121	1
1	"other.american.11"	3	7	27	7	"contribution"	4	28	121	1
1	"other.american.11"	3	7	28	7	"contribution"	3	24	121	1
1	"other.american.11"	3	8	29	7	"contribution"	3	15	121	0
1	"other.american.11"	3	8	30	7	"contribution"	2	25	121	0
1	"other.american.11"	3	8	31	7	"contribution"	0	12	121	0
1	"other.american.11"	3	8	32	7	"contribution"	4	26	121	0
1	"other.american.11"	3	9	33	7	"contribution"	4	27	154	1
1	"other.american.11"	3	9	34	7	"contribution"	4	28	154	1
1	"other.american.11"	3	9	35	7	"contribution"	4	28	154	1
1	"other.american.11"	3	9	36	7	"contribution"	4	24	154	1
1	"other.american.11"	3	10	37	7	"contribution"	3	21	111	1
1	"other.american.11"	3	10	38	7	"contribution"	3	21	111	1
1	"other.american.11"	3	10	39	7	"contribution"	4	22	111	1
1	"other.american.11"	3	10	40	7	"contribution"	3	22	111	1
1	"other.american.11"	3	11	41	7	"contribution"	1	13	75	1
1	"other.american.11"	3	11	42	7	"contribution"	2	23	75	1
1	"other.american.11"	3	11	43	7	"contribution"	0	6	75	1
1	"other.american.11"	3	11	44	7	"contribution"	1	24	75	1
1	"other.american.11"	3	12	45	7	"contribution"	3	27	106	1
1	"other.american.11"	3	12	46	7	"contribution"	4	25	106	1
1	"other.american.11"	3	12	47	7	"contribution"	3	19	106	1
1	"other.american.11"	3	12	48	7	"contribution"	4	16	106	1
1	"other.american.11"	3	7	25	8	"contribution"	4	32	121	1
1	"other.american.11"	3	7	26	8	"contribution"	4	30	121	1
1	"other.american.11"	3	7	27	8	"contribution"	2	30	121	1
1	"other.american.11"	3	7	28	8	"contribution"	3	27	121	1
1	"other.american.11"	3	8	29	8	"contribution"	1	16	121	0
1	"other.american.11"	3	8	30	8	"contribution"	2	27	121	0
1	"other.american.11"	3	8	31	8	"contribution"	3	15	121	0
1	"other.american.11"	3	8	32	8	"contribution"	0	26	121	0
1	"other.american.11"	3	9	33	8	"contribution"	4	31	154	1
1	"other.american.11"	3	9	34	8	"contribution"	4	32	154	1
1	"other.american.11"	3	9	35	8	"contribution"	4	32	154	1
1	"other.american.11"	3	9	36	8	"contribution"	4	28	154	1
1	"other.american.11"	3	10	37	8	"contribution"	3	24	111	1
1	"other.american.11"	3	10	38	8	"contribution"	3	24	111	1
1	"other.american.11"	3	10	39	8	"contribution"	3	25	111	1
1	"other.american.11"	3	10	40	8	"contribution"	3	25	111	1
1	"other.american.11"	3	11	41	8	"contribution"	0	13	75	1
1	"other.american.11"	3	11	42	8	"contribution"	1	24	75	1
1	"other.american.11"	3	11	43	8	"contribution"	2	8	75	1
1	"other.american.11"	3	11	44	8	"contribution"	1	25	75	1
1	"other.american.11"	3	12	45	8	"contribution"	4	31	106	1
1	"other.american.11"	3	12	46	8	"contribution"	3	28	106	1
1	"other.american.11"	3	12	47	8	"contribution"	2	21	106	1
1	"other.american.11"	3	12	48	8	"contribution"	4	20	106	1
1	"other.american.11"	3	7	25	9	"contribution"	0	32	121	1
1	"other.american.11"	3	7	26	9	"contribution"	0	30	121	1
1	"other.american.11"	3	7	27	9	"contribution"	1	31	121	1
1	"other.american.11"	3	7	28	9	"contribution"	0	27	121	1
1	"other.american.11"	3	8	29	9	"contribution"	0	16	121	0
1	"other.american.11"	3	8	30	9	"contribution"	3	30	121	0
1	"other.american.11"	3	8	31	9	"contribution"	4	19	121	0
1	"other.american.11"	3	8	32	9	"contribution"	4	30	121	0
1	"other.american.11"	3	9	33	9	"contribution"	4	35	154	1
1	"other.american.11"	3	9	34	9	"contribution"	4	36	154	1
1	"other.american.11"	3	9	35	9	"contribution"	4	36	154	1
1	"other.american.11"	3	9	36	9	"contribution"	4	32	154	1
1	"other.american.11"	3	10	37	9	"contribution"	4	28	111	1
1	"other.american.11"	3	10	38	9	"contribution"	3	27	111	1
1	"other.american.11"	3	10	39	9	"contribution"	4	29	111	1
1	"other.american.11"	3	10	40	9	"contribution"	4	29	111	1
1	"other.american.11"	3	11	41	9	"contribution"	1	14	75	1
1	"other.american.11"	3	11	42	9	"contribution"	1	25	75	1
1	"other.american.11"	3	11	43	9	"contribution"	2	10	75	1
1	"other.american.11"	3	11	44	9	"contribution"	3	28	75	1
1	"other.american.11"	3	12	45	9	"contribution"	2	33	106	1
1	"other.american.11"	3	12	46	9	"contribution"	2	30	106	1
1	"other.american.11"	3	12	47	9	"contribution"	2	23	106	1
1	"other.american.11"	3	12	48	9	"contribution"	0	20	106	1
1	"other.american.11"	3	7	25	10	"contribution"	1	33	121	1
1	"other.american.11"	3	7	26	10	"contribution"	1	31	121	1
1	"other.american.11"	3	7	27	10	"contribution"	1	32	121	1
1	"other.american.11"	3	7	28	10	"contribution"	1	28	121	1
1	"other.american.11"	3	8	29	10	"contribution"	0	16	121	0
1	"other.american.11"	3	8	30	10	"contribution"	4	34	121	0
1	"other.american.11"	3	8	31	10	"contribution"	4	23	121	0
1	"other.american.11"	3	8	32	10	"contribution"	0	30	121	0
1	"other.american.11"	3	9	33	10	"contribution"	4	39	154	1
1	"other.american.11"	3	9	34	10	"contribution"	4	40	154	1
1	"other.american.11"	3	9	35	10	"contribution"	4	40	154	1
1	"other.american.11"	3	9	36	10	"contribution"	4	36	154	1
1	"other.american.11"	3	10	37	10	"contribution"	0	28	111	1
1	"other.american.11"	3	10	38	10	"contribution"	0	27	111	1
1	"other.american.11"	3	10	39	10	"contribution"	2	31	111	1
1	"other.american.11"	3	10	40	10	"contribution"	0	29	111	1
1	"other.american.11"	3	11	41	10	"contribution"	0	14	75	1
1	"other.american.11"	3	11	42	10	"contribution"	0	25	75	1
1	"other.american.11"	3	11	43	10	"contribution"	0	10	75	1
1	"other.american.11"	3	11	44	10	"contribution"	0	28	75	1
1	"other.american.11"	3	12	45	10	"contribution"	0	33	106	1
1	"other.american.11"	3	12	46	10	"contribution"	0	30	106	1
1	"other.american.11"	3	12	47	10	"contribution"	0	23	106	1
1	"other.american.11"	3	12	48	10	"contribution"	0	20	106	1
1	"self.11"	2	13	49	1	"extraction"	0	0	88	1
1	"self.11"	2	13	50	1	"extraction"	2	2	88	1
1	"self.11"	2	13	51	1	"extraction"	4	4	88	1
1	"self.11"	2	13	52	1	"extraction"	2	2	88	1
1	"self.11"	2	14	53	1	"extraction"	4	4	119	1
1	"self.11"	2	14	54	1	"extraction"	4	4	119	1
1	"self.11"	2	14	55	1	"extraction"	2	2	119	1
1	"self.11"	2	14	56	1	"extraction"	4	4	119	1
1	"self.11"	2	15	57	1	"extraction"	3	3	73	1
1	"self.11"	2	15	58	1	"extraction"	3	3	73	1
1	"self.11"	2	15	59	1	"extraction"	4	4	73	1
1	"self.11"	2	15	60	1	"extraction"	2	2	73	1
1	"self.11"	2	16	61	1	"extraction"	3	3	103	1
1	"self.11"	2	16	62	1	"extraction"	2	2	103	1
1	"self.11"	2	16	63	1	"extraction"	2	2	103	1
1	"self.11"	2	16	64	1	"extraction"	4	4	103	1
1	"self.11"	2	17	65	1	"extraction"	4	4	50	1
1	"self.11"	2	17	66	1	"extraction"	1	1	50	1
1	"self.11"	2	17	67	1	"extraction"	2	2	50	1
1	"self.11"	2	17	68	1	"extraction"	3	3	50	1
1	"self.11"	2	18	69	1	"extraction"	3	3	79	1
1	"self.11"	2	18	70	1	"extraction"	2	2	79	1
1	"self.11"	2	18	71	1	"extraction"	3	3	79	1
1	"self.11"	2	18	72	1	"extraction"	2	2	79	1
1	"self.11"	2	13	49	2	"extraction"	4	4	88	1
1	"self.11"	2	13	50	2	"extraction"	2	4	88	1
1	"self.11"	2	13	51	2	"extraction"	4	8	88	1
1	"self.11"	2	13	52	2	"extraction"	0	2	88	1
1	"self.11"	2	14	53	2	"extraction"	3	7	119	1
1	"self.11"	2	14	54	2	"extraction"	3	7	119	1
1	"self.11"	2	14	55	2	"extraction"	1	3	119	1
1	"self.11"	2	14	56	2	"extraction"	4	8	119	1
1	"self.11"	2	15	57	2	"extraction"	3	6	73	1
1	"self.11"	2	15	58	2	"extraction"	3	6	73	1
1	"self.11"	2	15	59	2	"extraction"	4	8	73	1
1	"self.11"	2	15	60	2	"extraction"	4	6	73	1
1	"self.11"	2	16	61	2	"extraction"	2	5	103	1
1	"self.11"	2	16	62	2	"extraction"	4	6	103	1
1	"self.11"	2	16	63	2	"extraction"	2	4	103	1
1	"self.11"	2	16	64	2	"extraction"	4	8	103	1
1	"self.11"	2	17	65	2	"extraction"	2	6	50	1
1	"self.11"	2	17	66	2	"extraction"	0	1	50	1
1	"self.11"	2	17	67	2	"extraction"	1	3	50	1
1	"self.11"	2	17	68	2	"extraction"	3	6	50	1
1	"self.11"	2	18	69	2	"extraction"	3	6	79	1
1	"self.11"	2	18	70	2	"extraction"	2	4	79	1
1	"self.11"	2	18	71	2	"extraction"	3	6	79	1
1	"self.11"	2	18	72	2	"extraction"	4	6	79	1
1	"self.11"	2	13	49	3	"extraction"	4	8	88	1
1	"self.11"	2	13	50	3	"extraction"	3	7	88	1
1	"self.11"	2	13	51	3	"extraction"	4	12	88	1
1	"self.11"	2	13	52	3	"extraction"	4	6	88	1
1	"self.11"	2	14	53	3	"extraction"	4	11	119	1
1	"self.11"	2	14	54	3	"extraction"	3	10	119	1
1	"self.11"	2	14	55	3	"extraction"	4	7	119	1
1	"self.11"	2	14	56	3	"extraction"	4	12	119	1
1	"self.11"	2	15	57	3	"extraction"	2	8	73	1
1	"self.11"	2	15	58	3	"extraction"	2	8	73	1
1	"self.11"	2	15	59	3	"extraction"	4	12	73	1
1	"self.11"	2	15	60	3	"extraction"	3	9	73	1
1	"self.11"	2	16	61	3	"extraction"	4	9	103	1
1	"self.11"	2	16	62	3	"extraction"	3	9	103	1
1	"self.11"	2	16	63	3	"extraction"	4	8	103	1
1	"self.11"	2	16	64	3	"extraction"	4	12	103	1
1	"self.11"	2	17	65	3	"extraction"	4	10	50	1
1	"self.11"	2	17	66	3	"extraction"	0	1	50	1
1	"self.11"	2	17	67	3	"extraction"	3	6	50	1
1	"self.11"	2	17	68	3	"extraction"	3	9	50	1
1	"self.11"	2	18	69	3	"extraction"	4	10	79	1
1	"self.11"	2	18	70	3	"extraction"	3	7	79	1
1	"self.11"	2	18	71	3	"extraction"	4	10	79	1
1	"self.11"	2	18	72	3	"extraction"	4	10	79	1
1	"self.11"	2	13	49	4	"extraction"	3	11	88	1
1	"self.11"	2	13	50	4	"extraction"	4	11	88	1
1	"self.11"	2	13	51	4	"extraction"	3	15	88	1
1	"self.11"	2	13	52	4	"extraction"	2	8	88	1
1	"self.11"	2	14	53	4	"extraction"	2	13	119	1
1	"self.11"	2	14	54	4	"extraction"	4	14	119	1
1	"self.11"	2	14	55	4	"extraction"	4	11	119	1
1	"self.11"	2	14	56	4	"extraction"	4	16	119	1
1	"self.11"	2	15	57	4	"extraction"	3	11	73	1
1	"self.11"	2	15	58	4	"extraction"	4	12	73	1
1	"self.11"	2	15	59	4	"extraction"	4	16	73	1
1	"self.11"	2	15	60	4	"extraction"	1	10	73	1
1	"self.11"	2	16	61	4	"extraction"	4	13	103	1
1	"self.11"	2	16	62	4	"extraction"	4	13	103	1
1	"self.11"	2	16	63	4	"extraction"	4	12	103	1
1	"self.11"	2	16	64	4	"extraction"	3	15	103	1
1	"self.11"	2	17	65	4	"extraction"	3	13	50	1
1	"self.11"	2	17	66	4	"extraction"	0	1	50	1
1	"self.11"	2	17	67	4	"extraction"	2	8	50	1
1	"self.11"	2	17	68	4	"extraction"	4	13	50	1
1	"self.11"	2	18	69	4	"extraction"	3	13	79	1
1	"self.11"	2	18	70	4	"extraction"	3	10	79	1
1	"self.11"	2	18	71	4	"extraction"	1	11	79	1
1	"self.11"	2	18	72	4	"extraction"	4	14	79	1
1	"self.11"	2	13	49	5	"extraction"	3	14	88	1
1	"self.11"	2	13	50	5	"extraction"	4	15	88	1
1	"self.11"	2	13	51	5	"extraction"	3	18	88	1
1	"self.11"	2	13	52	5	"extraction"	4	12	88	1
1	"self.11"	2	14	53	5	"extraction"	4	17	119	1
1	"self.11"	2	14	54	5	"extraction"	3	17	119	1
1	"self.11"	2	14	55	5	"extraction"	4	15	119	1
1	"self.11"	2	14	56	5	"extraction"	4	20	119	1
1	"self.11"	2	15	57	5	"extraction"	4	15	73	1
1	"self.11"	2	15	58	5	"extraction"	2	14	73	1
1	"self.11"	2	15	59	5	"extraction"	4	20	73	1
1	"self.11"	2	15	60	5	"extraction"	4	14	73	1
1	"self.11"	2	16	61	5	"extraction"	4	17	103	1
1	"self.11"	2	16	62	5	"extraction"	3	16	103	1
1	"self.11"	2	16	63	5	"extraction"	3	15	103	1
1	"self.11"	2	16	64	5	"extraction"	4	19	103	1
1	"self.11"	2	17	65	5	"extraction"	1	14	50	1
1	"self.11"	2	17	66	5	"extraction"	1	2	50	1
1	"self.11"	2	17	67	5	"extraction"	2	10	50	1
1	"self.11"	2	17	68	5	"extraction"	3	16	50	1
1	"self.11"	2	18	69	5	"extraction"	3	16	79	1
1	"self.11"	2	18	70	5	"extraction"	3	13	79	1
1	"self.11"	2	18	71	5	"extraction"	4	15	79	1
1	"self.11"	2	18	72	5	"extraction"	4	18	79	1
1	"self.11"	2	13	49	6	"extraction"	3	17	88	1
1	"self.11"	2	13	50	6	"extraction"	0	15	88	1
1	"self.11"	2	13	51	6	"extraction"	4	22	88	1
1	"self.11"	2	13	52	6	"extraction"	4	16	88	1
1	"self.11"	2	14	53	6	"extraction"	4	21	119	1
1	"self.11"	2	14	54	6	"extraction"	3	20	119	1
1	"self.11"	2	14	55	6	"extraction"	4	19	119	1
1	"self.11"	2	14	56	6	"extraction"	4	24	119	1
1	"self.11"	2	15	57	6	"extraction"	3	18	73	1
1	"self.11"	2	15	58	6	"extraction"	3	17	73	1
1	"self.11"	2	15	59	6	"extraction"	4	24	73	1
1	"self.11"	2	15	60	6	"extraction"	3	17	73	1
1	"self.11"	2	16	61	6	"extraction"	4	21	103	1
1	"self.11"	2	16	62	6	"extraction"	4	20	103	1
1	"self.11"	2	16	63	6	"extraction"	2	17	103	1
1	"self.11"	2	16	64	6	"extraction"	4	23	103	1
1	"self.11"	2	17	65	6	"extraction"	2	16	50	1
1	"self.11"	2	17	66	6	"extraction"	1	3	50	1
1	"self.11"	2	17	67	6	"extraction"	3	13	50	1
1	"self.11"	2	17	68	6	"extraction"	4	20	50	1
1	"self.11"	2	18	69	6	"extraction"	1	17	79	1
1	"self.11"	2	18	70	6	"extraction"	3	16	79	1
1	"self.11"	2	18	71	6	"extraction"	3	18	79	1
1	"self.11"	2	18	72	6	"extraction"	4	22	79	1
1	"self.11"	2	13	49	7	"extraction"	3	20	88	1
1	"self.11"	2	13	50	7	"extraction"	2	17	88	1
1	"self.11"	2	13	51	7	"extraction"	4	26	88	1
1	"self.11"	2	13	52	7	"extraction"	4	20	88	1
1	"self.11"	2	14	53	7	"extraction"	4	25	119	1
1	"self.11"	2	14	54	7	"extraction"	4	24	119	1
1	"self.11"	2	14	55	7	"extraction"	2	21	119	1
1	"self.11"	2	14	56	7	"extraction"	3	27	119	1
1	"self.11"	2	15	57	7	"extraction"	2	20	73	1
1	"self.11"	2	15	58	7	"extraction"	3	20	73	1
1	"self.11"	2	15	59	7	"extraction"	4	28	73	1
1	"self.11"	2	15	60	7	"extraction"	4	21	73	1
1	"self.11"	2	16	61	7	"extraction"	4	25	103	1
1	"self.11"	2	16	62	7	"extraction"	3	23	103	1
1	"self.11"	2	16	63	7	"extraction"	4	21	103	1
1	"self.11"	2	16	64	7	"extraction"	4	27	103	1
1	"self.11"	2	17	65	7	"extraction"	4	20	50	1
1	"self.11"	2	17	66	7	"extraction"	2	5	50	1
1	"self.11"	2	17	67	7	"extraction"	4	17	50	1
1	"self.11"	2	17	68	7	"extraction"	4	24	50	1
1	"self.11"	2	18	69	7	"extraction"	3	20	79	1
1	"self.11"	2	18	70	7	"extraction"	3	19	79	1
1	"self.11"	2	18	71	7	"extraction"	3	21	79	1
1	"self.11"	2	18	72	7	"extraction"	4	26	79	1
1	"self.11"	2	13	49	8	"extraction"	3	23	88	1
1	"self.11"	2	13	50	8	"extraction"	2	19	88	1
1	"self.11"	2	13	51	8	"extraction"	4	30	88	1
1	"self.11"	2	13	52	8	"extraction"	4	24	88	1
1	"self.11"	2	14	53	8	"extraction"	4	29	119	1
1	"self.11"	2	14	54	8	"extraction"	4	28	119	1
1	"self.11"	2	14	55	8	"extraction"	4	25	119	1
1	"self.11"	2	14	56	8	"extraction"	3	30	119	1
1	"self.11"	2	15	57	8	"extraction"	1	21	73	1
1	"self.11"	2	15	58	8	"extraction"	2	22	73	1
1	"self.11"	2	15	59	8	"extraction"	2	30	73	1
1	"self.11"	2	15	60	8	"extraction"	3	24	73	1
1	"self.11"	2	16	61	8	"extraction"	4	29	103	1
1	"self.11"	2	16	62	8	"extraction"	2	25	103	1
1	"self.11"	2	16	63	8	"extraction"	2	23	103	1
1	"self.11"	2	16	64	8	"extraction"	4	31	103	1
1	"self.11"	2	17	65	8	"extraction"	0	20	50	1
1	"self.11"	2	17	66	8	"extraction"	1	6	50	1
1	"self.11"	2	17	67	8	"extraction"	2	19	50	1
1	"self.11"	2	17	68	8	"extraction"	4	28	50	1
1	"self.11"	2	18	69	8	"extraction"	4	24	79	1
1	"self.11"	2	18	70	8	"extraction"	3	22	79	1
1	"self.11"	2	18	71	8	"extraction"	2	23	79	1
1	"self.11"	2	18	72	8	"extraction"	3	29	79	1
1	"self.11"	2	13	49	9	"extraction"	4	27	88	1
1	"self.11"	2	13	50	9	"extraction"	2	21	88	1
1	"self.11"	2	13	51	9	"extraction"	4	34	88	1
1	"self.11"	2	13	52	9	"extraction"	3	27	88	1
1	"self.11"	2	14	53	9	"extraction"	4	33	119	1
1	"self.11"	2	14	54	9	"extraction"	4	32	119	1
1	"self.11"	2	14	55	9	"extraction"	4	29	119	1
1	"self.11"	2	14	56	9	"extraction"	2	32	119	1
1	"self.11"	2	15	57	9	"extraction"	0	21	73	1
1	"self.11"	2	15	58	9	"extraction"	2	24	73	1
1	"self.11"	2	15	59	9	"extraction"	2	32	73	1
1	"self.11"	2	15	60	9	"extraction"	0	24	73	1
1	"self.11"	2	16	61	9	"extraction"	1	30	103	1
1	"self.11"	2	16	62	9	"extraction"	4	29	103	1
1	"self.11"	2	16	63	9	"extraction"	3	26	103	1
1	"self.11"	2	16	64	9	"extraction"	4	35	103	1
1	"self.11"	2	17	65	9	"extraction"	4	24	50	1
1	"self.11"	2	17	66	9	"extraction"	1	7	50	1
1	"self.11"	2	17	67	9	"extraction"	2	21	50	1
1	"self.11"	2	17	68	9	"extraction"	3	31	50	1
1	"self.11"	2	18	69	9	"extraction"	4	28	79	1
1	"self.11"	2	18	70	9	"extraction"	2	24	79	1
1	"self.11"	2	18	71	9	"extraction"	1	24	79	1
1	"self.11"	2	18	72	9	"extraction"	1	30	79	1
1	"self.11"	2	13	49	10	"extraction"	4	31	88	1
1	"self.11"	2	13	50	10	"extraction"	2	23	88	1
1	"self.11"	2	13	51	10	"extraction"	4	38	88	1
1	"self.11"	2	13	52	10	"extraction"	2	29	88	1
1	"self.11"	2	14	53	10	"extraction"	4	37	119	1
1	"self.11"	2	14	54	10	"extraction"	4	36	119	1
1	"self.11"	2	14	55	10	"extraction"	4	33	119	1
1	"self.11"	2	14	56	10	"extraction"	3	35	119	1
1	"self.11"	2	15	57	10	"extraction"	0	21	73	1
1	"self.11"	2	15	58	10	"extraction"	3	27	73	1
1	"self.11"	2	15	59	10	"extraction"	2	34	73	1
1	"self.11"	2	15	60	10	"extraction"	3	27	73	1
1	"self.11"	2	16	61	10	"extraction"	4	34	103	1
1	"self.11"	2	16	62	10	"extraction"	1	30	103	1
1	"self.11"	2	16	63	10	"extraction"	2	28	103	1
1	"self.11"	2	16	64	10	"extraction"	4	39	103	1
1	"self.11"	2	17	65	10	"extraction"	2	26	50	1
1	"self.11"	2	17	66	10	"extraction"	0	7	50	1
1	"self.11"	2	17	67	10	"extraction"	0	21	50	1
1	"self.11"	2	17	68	10	"extraction"	3	34	50	1
1	"self.11"	2	18	69	10	"extraction"	2	30	79	1
1	"self.11"	2	18	70	10	"extraction"	2	26	79	1
1	"self.11"	2	18	71	10	"extraction"	1	25	79	1
1	"self.11"	2	18	72	10	"extraction"	3	33	79	1
1	"self.11"	2	13	49	1	"contribution"	3	3	88	1
1	"self.11"	2	13	50	1	"contribution"	4	4	88	1
1	"self.11"	2	13	51	1	"contribution"	4	4	88	1
1	"self.11"	2	13	52	1	"contribution"	4	4	88	1
1	"self.11"	2	14	53	1	"contribution"	4	4	119	1
1	"self.11"	2	14	54	1	"contribution"	3	3	119	1
1	"self.11"	2	14	55	1	"contribution"	2	2	119	1
1	"self.11"	2	14	56	1	"contribution"	4	4	119	1
1	"self.11"	2	15	57	1	"contribution"	4	4	73	1
1	"self.11"	2	15	58	1	"contribution"	3	3	73	1
1	"self.11"	2	15	59	1	"contribution"	4	4	73	1
1	"self.11"	2	15	60	1	"contribution"	3	3	73	1
1	"self.11"	2	16	61	1	"contribution"	3	3	103	1
1	"self.11"	2	16	62	1	"contribution"	2	2	103	1
1	"self.11"	2	16	63	1	"contribution"	3	3	103	1
1	"self.11"	2	16	64	1	"contribution"	4	4	103	1
1	"self.11"	2	17	65	1	"contribution"	3	3	50	1
1	"self.11"	2	17	66	1	"contribution"	4	4	50	1
1	"self.11"	2	17	67	1	"contribution"	2	2	50	1
1	"self.11"	2	17	68	1	"contribution"	2	2	50	1
1	"self.11"	2	18	69	1	"contribution"	3	3	79	1
1	"self.11"	2	18	70	1	"contribution"	4	4	79	1
1	"self.11"	2	18	71	1	"contribution"	4	4	79	1
1	"self.11"	2	18	72	1	"contribution"	2	2	79	1
1	"self.11"	2	13	49	2	"contribution"	4	7	88	1
1	"self.11"	2	13	50	2	"contribution"	4	8	88	1
1	"self.11"	2	13	51	2	"contribution"	4	8	88	1
1	"self.11"	2	13	52	2	"contribution"	3	7	88	1
1	"self.11"	2	14	53	2	"contribution"	4	8	119	1
1	"self.11"	2	14	54	2	"contribution"	3	6	119	1
1	"self.11"	2	14	55	2	"contribution"	3	5	119	1
1	"self.11"	2	14	56	2	"contribution"	4	8	119	1
1	"self.11"	2	15	57	2	"contribution"	3	7	73	1
1	"self.11"	2	15	58	2	"contribution"	4	7	73	1
1	"self.11"	2	15	59	2	"contribution"	4	8	73	1
1	"self.11"	2	15	60	2	"contribution"	3	6	73	1
1	"self.11"	2	16	61	2	"contribution"	3	6	103	1
1	"self.11"	2	16	62	2	"contribution"	4	6	103	1
1	"self.11"	2	16	63	2	"contribution"	3	6	103	1
1	"self.11"	2	16	64	2	"contribution"	4	8	103	1
1	"self.11"	2	17	65	2	"contribution"	4	7	50	1
1	"self.11"	2	17	66	2	"contribution"	4	8	50	1
1	"self.11"	2	17	67	2	"contribution"	2	4	50	1
1	"self.11"	2	17	68	2	"contribution"	1	3	50	1
1	"self.11"	2	18	69	2	"contribution"	3	6	79	1
1	"self.11"	2	18	70	2	"contribution"	3	7	79	1
1	"self.11"	2	18	71	2	"contribution"	4	8	79	1
1	"self.11"	2	18	72	2	"contribution"	4	6	79	1
1	"self.11"	2	13	49	3	"contribution"	3	10	88	1
1	"self.11"	2	13	50	3	"contribution"	4	12	88	1
1	"self.11"	2	13	51	3	"contribution"	4	12	88	1
1	"self.11"	2	13	52	3	"contribution"	4	11	88	1
1	"self.11"	2	14	53	3	"contribution"	4	12	119	1
1	"self.11"	2	14	54	3	"contribution"	3	9	119	1
1	"self.11"	2	14	55	3	"contribution"	0	5	119	1
1	"self.11"	2	14	56	3	"contribution"	4	12	119	1
1	"self.11"	2	15	57	3	"contribution"	3	10	73	1
1	"self.11"	2	15	58	3	"contribution"	3	10	73	1
1	"self.11"	2	15	59	3	"contribution"	4	12	73	1
1	"self.11"	2	15	60	3	"contribution"	4	10	73	1
1	"self.11"	2	16	61	3	"contribution"	3	9	103	1
1	"self.11"	2	16	62	3	"contribution"	4	10	103	1
1	"self.11"	2	16	63	3	"contribution"	3	9	103	1
1	"self.11"	2	16	64	3	"contribution"	4	12	103	1
1	"self.11"	2	17	65	3	"contribution"	4	11	50	1
1	"self.11"	2	17	66	3	"contribution"	3	11	50	1
1	"self.11"	2	17	67	3	"contribution"	2	6	50	1
1	"self.11"	2	17	68	3	"contribution"	1	4	50	1
1	"self.11"	2	18	69	3	"contribution"	4	10	79	1
1	"self.11"	2	18	70	3	"contribution"	3	10	79	1
1	"self.11"	2	18	71	3	"contribution"	4	12	79	1
1	"self.11"	2	18	72	3	"contribution"	3	9	79	1
1	"self.11"	2	13	49	4	"contribution"	4	14	88	1
1	"self.11"	2	13	50	4	"contribution"	4	16	88	1
1	"self.11"	2	13	51	4	"contribution"	4	16	88	1
1	"self.11"	2	13	52	4	"contribution"	4	15	88	1
1	"self.11"	2	14	53	4	"contribution"	4	16	119	1
1	"self.11"	2	14	54	4	"contribution"	3	12	119	1
1	"self.11"	2	14	55	4	"contribution"	2	7	119	1
1	"self.11"	2	14	56	4	"contribution"	3	15	119	1
1	"self.11"	2	15	57	4	"contribution"	3	13	73	1
1	"self.11"	2	15	58	4	"contribution"	4	14	73	1
1	"self.11"	2	15	59	4	"contribution"	4	16	73	1
1	"self.11"	2	15	60	4	"contribution"	4	14	73	1
1	"self.11"	2	16	61	4	"contribution"	3	12	103	1
1	"self.11"	2	16	62	4	"contribution"	3	13	103	1
1	"self.11"	2	16	63	4	"contribution"	3	12	103	1
1	"self.11"	2	16	64	4	"contribution"	4	16	103	1
1	"self.11"	2	17	65	4	"contribution"	1	12	50	1
1	"self.11"	2	17	66	4	"contribution"	3	14	50	1
1	"self.11"	2	17	67	4	"contribution"	1	7	50	1
1	"self.11"	2	17	68	4	"contribution"	1	5	50	1
1	"self.11"	2	18	69	4	"contribution"	4	14	79	1
1	"self.11"	2	18	70	4	"contribution"	3	13	79	1
1	"self.11"	2	18	71	4	"contribution"	3	15	79	1
1	"self.11"	2	18	72	4	"contribution"	1	10	79	1
1	"self.11"	2	13	49	5	"contribution"	4	18	88	1
1	"self.11"	2	13	50	5	"contribution"	4	20	88	1
1	"self.11"	2	13	51	5	"contribution"	3	19	88	1
1	"self.11"	2	13	52	5	"contribution"	2	17	88	1
1	"self.11"	2	14	53	5	"contribution"	4	20	119	1
1	"self.11"	2	14	54	5	"contribution"	3	15	119	1
1	"self.11"	2	14	55	5	"contribution"	4	11	119	1
1	"self.11"	2	14	56	5	"contribution"	3	18	119	1
1	"self.11"	2	15	57	5	"contribution"	4	17	73	1
1	"self.11"	2	15	58	5	"contribution"	3	17	73	1
1	"self.11"	2	15	59	5	"contribution"	2	18	73	1
1	"self.11"	2	15	60	5	"contribution"	4	18	73	1
1	"self.11"	2	16	61	5	"contribution"	4	16	103	1
1	"self.11"	2	16	62	5	"contribution"	3	16	103	1
1	"self.11"	2	16	63	5	"contribution"	3	15	103	1
1	"self.11"	2	16	64	5	"contribution"	4	20	103	1
1	"self.11"	2	17	65	5	"contribution"	0	12	50	1
1	"self.11"	2	17	66	5	"contribution"	2	16	50	1
1	"self.11"	2	17	67	5	"contribution"	4	11	50	1
1	"self.11"	2	17	68	5	"contribution"	0	5	50	1
1	"self.11"	2	18	69	5	"contribution"	3	17	79	1
1	"self.11"	2	18	70	5	"contribution"	4	17	79	1
1	"self.11"	2	18	71	5	"contribution"	1	16	79	1
1	"self.11"	2	18	72	5	"contribution"	0	10	79	1
1	"self.11"	2	13	49	6	"contribution"	3	21	88	1
1	"self.11"	2	13	50	6	"contribution"	4	24	88	1
1	"self.11"	2	13	51	6	"contribution"	3	22	88	1
1	"self.11"	2	13	52	6	"contribution"	4	21	88	1
1	"self.11"	2	14	53	6	"contribution"	3	23	119	1
1	"self.11"	2	14	54	6	"contribution"	4	19	119	1
1	"self.11"	2	14	55	6	"contribution"	3	14	119	1
1	"self.11"	2	14	56	6	"contribution"	4	22	119	1
1	"self.11"	2	15	57	6	"contribution"	1	18	73	1
1	"self.11"	2	15	58	6	"contribution"	1	18	73	1
1	"self.11"	2	15	59	6	"contribution"	0	18	73	1
1	"self.11"	2	15	60	6	"contribution"	1	19	73	1
1	"self.11"	2	16	61	6	"contribution"	4	20	103	1
1	"self.11"	2	16	62	6	"contribution"	3	19	103	1
1	"self.11"	2	16	63	6	"contribution"	4	19	103	1
1	"self.11"	2	16	64	6	"contribution"	3	23	103	1
1	"self.11"	2	17	65	6	"contribution"	4	16	50	1
1	"self.11"	2	17	66	6	"contribution"	2	18	50	1
1	"self.11"	2	17	67	6	"contribution"	1	12	50	1
1	"self.11"	2	17	68	6	"contribution"	0	5	50	1
1	"self.11"	2	18	69	6	"contribution"	1	18	79	1
1	"self.11"	2	18	70	6	"contribution"	3	20	79	1
1	"self.11"	2	18	71	6	"contribution"	3	19	79	1
1	"self.11"	2	18	72	6	"contribution"	1	11	79	1
1	"self.11"	2	13	49	7	"contribution"	0	21	88	1
1	"self.11"	2	13	50	7	"contribution"	0	24	88	1
1	"self.11"	2	13	51	7	"contribution"	0	22	88	1
1	"self.11"	2	13	52	7	"contribution"	3	24	88	1
1	"self.11"	2	14	53	7	"contribution"	4	27	119	1
1	"self.11"	2	14	54	7	"contribution"	4	23	119	1
1	"self.11"	2	14	55	7	"contribution"	4	18	119	1
1	"self.11"	2	14	56	7	"contribution"	3	25	119	1
1	"self.11"	2	15	57	7	"contribution"	0	18	73	1
1	"self.11"	2	15	58	7	"contribution"	0	18	73	1
1	"self.11"	2	15	59	7	"contribution"	0	18	73	1
1	"self.11"	2	15	60	7	"contribution"	0	19	73	1
1	"self.11"	2	16	61	7	"contribution"	4	24	103	1
1	"self.11"	2	16	62	7	"contribution"	3	22	103	1
1	"self.11"	2	16	63	7	"contribution"	4	23	103	1
1	"self.11"	2	16	64	7	"contribution"	0	23	103	1
1	"self.11"	2	17	65	7	"contribution"	2	18	50	1
1	"self.11"	2	17	66	7	"contribution"	0	18	50	1
1	"self.11"	2	17	67	7	"contribution"	0	12	50	1
1	"self.11"	2	17	68	7	"contribution"	0	5	50	1
1	"self.11"	2	18	69	7	"contribution"	2	20	79	1
1	"self.11"	2	18	70	7	"contribution"	1	21	79	1
1	"self.11"	2	18	71	7	"contribution"	4	23	79	1
1	"self.11"	2	18	72	7	"contribution"	1	12	79	1
1	"self.11"	2	13	49	8	"contribution"	0	21	88	1
1	"self.11"	2	13	50	8	"contribution"	0	24	88	1
1	"self.11"	2	13	51	8	"contribution"	0	22	88	1
1	"self.11"	2	13	52	8	"contribution"	1	25	88	1
1	"self.11"	2	14	53	8	"contribution"	3	30	119	1
1	"self.11"	2	14	54	8	"contribution"	3	26	119	1
1	"self.11"	2	14	55	8	"contribution"	4	22	119	1
1	"self.11"	2	14	56	8	"contribution"	2	27	119	1
1	"self.11"	2	15	57	8	"contribution"	0	18	73	1
1	"self.11"	2	15	58	8	"contribution"	0	18	73	1
1	"self.11"	2	15	59	8	"contribution"	1	19	73	1
1	"self.11"	2	15	60	8	"contribution"	0	19	73	1
1	"self.11"	2	16	61	8	"contribution"	0	24	103	1
1	"self.11"	2	16	62	8	"contribution"	2	24	103	1
1	"self.11"	2	16	63	8	"contribution"	3	26	103	1
1	"self.11"	2	16	64	8	"contribution"	0	23	103	1
1	"self.11"	2	17	65	8	"contribution"	0	18	50	1
1	"self.11"	2	17	66	8	"contribution"	0	18	50	1
1	"self.11"	2	17	67	8	"contribution"	0	12	50	1
1	"self.11"	2	17	68	8	"contribution"	0	5	50	1
1	"self.11"	2	18	69	8	"contribution"	0	20	79	1
1	"self.11"	2	18	70	8	"contribution"	0	21	79	1
1	"self.11"	2	18	71	8	"contribution"	3	26	79	1
1	"self.11"	2	18	72	8	"contribution"	0	12	79	1
1	"self.11"	2	13	49	9	"contribution"	0	21	88	1
1	"self.11"	2	13	50	9	"contribution"	0	24	88	1
1	"self.11"	2	13	51	9	"contribution"	0	22	88	1
1	"self.11"	2	13	52	9	"contribution"	0	25	88	1
1	"self.11"	2	14	53	9	"contribution"	3	33	119	1
1	"self.11"	2	14	54	9	"contribution"	4	30	119	1
1	"self.11"	2	14	55	9	"contribution"	4	26	119	1
1	"self.11"	2	14	56	9	"contribution"	0	27	119	1
1	"self.11"	2	15	57	9	"contribution"	0	18	73	1
1	"self.11"	2	15	58	9	"contribution"	0	18	73	1
1	"self.11"	2	15	59	9	"contribution"	0	19	73	1
1	"self.11"	2	15	60	9	"contribution"	0	19	73	1
1	"self.11"	2	16	61	9	"contribution"	0	24	103	1
1	"self.11"	2	16	62	9	"contribution"	2	26	103	1
1	"self.11"	2	16	63	9	"contribution"	4	30	103	1
1	"self.11"	2	16	64	9	"contribution"	0	23	103	1
1	"self.11"	2	17	65	9	"contribution"	0	18	50	1
1	"self.11"	2	17	66	9	"contribution"	0	18	50	1
1	"self.11"	2	17	67	9	"contribution"	0	12	50	1
1	"self.11"	2	17	68	9	"contribution"	0	5	50	1
1	"self.11"	2	18	69	9	"contribution"	0	20	79	1
1	"self.11"	2	18	70	9	"contribution"	0	21	79	1
1	"self.11"	2	18	71	9	"contribution"	1	27	79	1
1	"self.11"	2	18	72	9	"contribution"	0	12	79	1
1	"self.11"	2	13	49	10	"contribution"	0	21	88	1
1	"self.11"	2	13	50	10	"contribution"	0	24	88	1
1	"self.11"	2	13	51	10	"contribution"	0	22	88	1
1	"self.11"	2	13	52	10	"contribution"	0	25	88	1
1	"self.11"	2	14	53	10	"contribution"	0	33	119	1
1	"self.11"	2	14	54	10	"contribution"	1	31	119	1
1	"self.11"	2	14	55	10	"contribution"	1	27	119	1
1	"self.11"	2	14	56	10	"contribution"	1	28	119	1
1	"self.11"	2	15	57	10	"contribution"	0	18	73	1
1	"self.11"	2	15	58	10	"contribution"	0	18	73	1
1	"self.11"	2	15	59	10	"contribution"	0	19	73	1
1	"self.11"	2	15	60	10	"contribution"	0	19	73	1
1	"self.11"	2	16	61	10	"contribution"	1	25	103	1
1	"self.11"	2	16	62	10	"contribution"	0	26	103	1
1	"self.11"	2	16	63	10	"contribution"	0	30	103	1
1	"self.11"	2	16	64	10	"contribution"	0	23	103	1
1	"self.11"	2	17	65	10	"contribution"	0	18	50	1
1	"self.11"	2	17	66	10	"contribution"	0	18	50	1
1	"self.11"	2	17	67	10	"contribution"	0	12	50	1
1	"self.11"	2	17	68	10	"contribution"	0	5	50	1
1	"self.11"	2	18	69	10	"contribution"	0	20	79	1
1	"self.11"	2	18	70	10	"contribution"	0	21	79	1
1	"self.11"	2	18	71	10	"contribution"	0	27	79	1
1	"self.11"	2	18	72	10	"contribution"	0	12	79	1
1	"self.11"	4	19	73	1	"extraction"	2	2	79	1
1	"self.11"	4	19	74	1	"extraction"	3	3	79	1
1	"self.11"	4	19	75	1	"extraction"	1	1	79	1
1	"self.11"	4	19	76	1	"extraction"	4	4	79	1
1	"self.11"	4	20	77	1	"extraction"	3	3	127	0
1	"self.11"	4	20	78	1	"extraction"	4	4	127	0
1	"self.11"	4	20	79	1	"extraction"	4	4	127	0
1	"self.11"	4	20	80	1	"extraction"	4	4	127	0
1	"self.11"	4	21	81	1	"extraction"	4	4	56	1
1	"self.11"	4	21	82	1	"extraction"	3	3	56	1
1	"self.11"	4	21	83	1	"extraction"	2	2	56	1
1	"self.11"	4	21	84	1	"extraction"	1	1	56	1
1	"self.11"	4	22	85	1	"extraction"	2	2	102	1
1	"self.11"	4	22	86	1	"extraction"	4	4	102	1
1	"self.11"	4	22	87	1	"extraction"	3	3	102	1
1	"self.11"	4	22	88	1	"extraction"	2	2	102	1
1	"self.11"	4	23	89	1	"extraction"	4	4	136	1
1	"self.11"	4	23	90	1	"extraction"	4	4	136	1
1	"self.11"	4	23	91	1	"extraction"	4	4	136	1
1	"self.11"	4	23	92	1	"extraction"	4	4	136	1
1	"self.11"	4	24	93	1	"extraction"	2	2	91	1
1	"self.11"	4	24	94	1	"extraction"	2	2	91	1
1	"self.11"	4	24	95	1	"extraction"	3	3	91	1
1	"self.11"	4	24	96	1	"extraction"	4	4	91	1
1	"self.11"	4	19	73	2	"extraction"	3	5	79	1
1	"self.11"	4	19	74	2	"extraction"	3	6	79	1
1	"self.11"	4	19	75	2	"extraction"	1	2	79	1
1	"self.11"	4	19	76	2	"extraction"	4	8	79	1
1	"self.11"	4	20	77	2	"extraction"	4	7	127	0
1	"self.11"	4	20	78	2	"extraction"	3	7	127	0
1	"self.11"	4	20	79	2	"extraction"	4	8	127	0
1	"self.11"	4	20	80	2	"extraction"	4	8	127	0
1	"self.11"	4	21	81	2	"extraction"	2	6	56	1
1	"self.11"	4	21	82	2	"extraction"	2	5	56	1
1	"self.11"	4	21	83	2	"extraction"	3	5	56	1
1	"self.11"	4	21	84	2	"extraction"	2	3	56	1
1	"self.11"	4	22	85	2	"extraction"	4	6	102	1
1	"self.11"	4	22	86	2	"extraction"	4	8	102	1
1	"self.11"	4	22	87	2	"extraction"	3	6	102	1
1	"self.11"	4	22	88	2	"extraction"	2	4	102	1
1	"self.11"	4	23	89	2	"extraction"	4	8	136	1
1	"self.11"	4	23	90	2	"extraction"	4	8	136	1
1	"self.11"	4	23	91	2	"extraction"	4	8	136	1
1	"self.11"	4	23	92	2	"extraction"	4	8	136	1
1	"self.11"	4	24	93	2	"extraction"	2	4	91	1
1	"self.11"	4	24	94	2	"extraction"	4	6	91	1
1	"self.11"	4	24	95	2	"extraction"	3	6	91	1
1	"self.11"	4	24	96	2	"extraction"	3	7	91	1
1	"self.11"	4	19	73	3	"extraction"	3	8	79	1
1	"self.11"	4	19	74	3	"extraction"	3	9	79	1
1	"self.11"	4	19	75	3	"extraction"	1	3	79	1
1	"self.11"	4	19	76	3	"extraction"	4	12	79	1
1	"self.11"	4	20	77	3	"extraction"	3	10	127	0
1	"self.11"	4	20	78	3	"extraction"	2	9	127	0
1	"self.11"	4	20	79	3	"extraction"	4	12	127	0
1	"self.11"	4	20	80	3	"extraction"	4	12	127	0
1	"self.11"	4	21	81	3	"extraction"	3	9	56	1
1	"self.11"	4	21	82	3	"extraction"	3	8	56	1
1	"self.11"	4	21	83	3	"extraction"	3	8	56	1
1	"self.11"	4	21	84	3	"extraction"	3	6	56	1
1	"self.11"	4	22	85	3	"extraction"	2	8	102	1
1	"self.11"	4	22	86	3	"extraction"	4	12	102	1
1	"self.11"	4	22	87	3	"extraction"	4	10	102	1
1	"self.11"	4	22	88	3	"extraction"	3	7	102	1
1	"self.11"	4	23	89	3	"extraction"	4	12	136	1
1	"self.11"	4	23	90	3	"extraction"	4	12	136	1
1	"self.11"	4	23	91	3	"extraction"	4	12	136	1
1	"self.11"	4	23	92	3	"extraction"	4	12	136	1
1	"self.11"	4	24	93	3	"extraction"	2	6	91	1
1	"self.11"	4	24	94	3	"extraction"	2	8	91	1
1	"self.11"	4	24	95	3	"extraction"	3	9	91	1
1	"self.11"	4	24	96	3	"extraction"	4	11	91	1
1	"self.11"	4	19	73	4	"extraction"	3	11	79	1
1	"self.11"	4	19	74	4	"extraction"	3	12	79	1
1	"self.11"	4	19	75	4	"extraction"	2	5	79	1
1	"self.11"	4	19	76	4	"extraction"	4	16	79	1
1	"self.11"	4	20	77	4	"extraction"	4	14	127	0
1	"self.11"	4	20	78	4	"extraction"	4	13	127	0
1	"self.11"	4	20	79	4	"extraction"	4	16	127	0
1	"self.11"	4	20	80	4	"extraction"	4	16	127	0
1	"self.11"	4	21	81	4	"extraction"	3	12	56	1
1	"self.11"	4	21	82	4	"extraction"	3	11	56	1
1	"self.11"	4	21	83	4	"extraction"	2	10	56	1
1	"self.11"	4	21	84	4	"extraction"	2	8	56	1
1	"self.11"	4	22	85	4	"extraction"	2	10	102	1
1	"self.11"	4	22	86	4	"extraction"	4	16	102	1
1	"self.11"	4	22	87	4	"extraction"	4	14	102	1
1	"self.11"	4	22	88	4	"extraction"	4	11	102	1
1	"self.11"	4	23	89	4	"extraction"	3	15	136	1
1	"self.11"	4	23	90	4	"extraction"	4	16	136	1
1	"self.11"	4	23	91	4	"extraction"	4	16	136	1
1	"self.11"	4	23	92	4	"extraction"	4	16	136	1
1	"self.11"	4	24	93	4	"extraction"	2	8	91	1
1	"self.11"	4	24	94	4	"extraction"	2	10	91	1
1	"self.11"	4	24	95	4	"extraction"	3	12	91	1
1	"self.11"	4	24	96	4	"extraction"	4	15	91	1
1	"self.11"	4	19	73	5	"extraction"	3	14	79	1
1	"self.11"	4	19	74	5	"extraction"	3	15	79	1
1	"self.11"	4	19	75	5	"extraction"	1	6	79	1
1	"self.11"	4	19	76	5	"extraction"	4	20	79	1
1	"self.11"	4	20	77	5	"extraction"	2	16	127	0
1	"self.11"	4	20	78	5	"extraction"	4	17	127	0
1	"self.11"	4	20	79	5	"extraction"	4	20	127	0
1	"self.11"	4	20	80	5	"extraction"	4	20	127	0
1	"self.11"	4	21	81	5	"extraction"	2	14	56	1
1	"self.11"	4	21	82	5	"extraction"	4	15	56	1
1	"self.11"	4	21	83	5	"extraction"	4	14	56	1
1	"self.11"	4	21	84	5	"extraction"	2	10	56	1
1	"self.11"	4	22	85	5	"extraction"	4	14	102	1
1	"self.11"	4	22	86	5	"extraction"	4	20	102	1
1	"self.11"	4	22	87	5	"extraction"	4	18	102	1
1	"self.11"	4	22	88	5	"extraction"	2	13	102	1
1	"self.11"	4	23	89	5	"extraction"	3	18	136	1
1	"self.11"	4	23	90	5	"extraction"	4	20	136	1
1	"self.11"	4	23	91	5	"extraction"	4	20	136	1
1	"self.11"	4	23	92	5	"extraction"	4	20	136	1
1	"self.11"	4	24	93	5	"extraction"	2	10	91	1
1	"self.11"	4	24	94	5	"extraction"	2	12	91	1
1	"self.11"	4	24	95	5	"extraction"	4	16	91	1
1	"self.11"	4	24	96	5	"extraction"	3	18	91	1
1	"self.11"	4	19	73	6	"extraction"	3	17	79	1
1	"self.11"	4	19	74	6	"extraction"	3	18	79	1
1	"self.11"	4	19	75	6	"extraction"	2	8	79	1
1	"self.11"	4	19	76	6	"extraction"	4	24	79	1
1	"self.11"	4	20	77	6	"extraction"	3	19	127	0
1	"self.11"	4	20	78	6	"extraction"	3	20	127	0
1	"self.11"	4	20	79	6	"extraction"	4	24	127	0
1	"self.11"	4	20	80	6	"extraction"	4	24	127	0
1	"self.11"	4	21	81	6	"extraction"	3	17	56	1
1	"self.11"	4	21	82	6	"extraction"	1	16	56	1
1	"self.11"	4	21	83	6	"extraction"	3	17	56	1
1	"self.11"	4	21	84	6	"extraction"	2	12	56	1
1	"self.11"	4	22	85	6	"extraction"	4	18	102	1
1	"self.11"	4	22	86	6	"extraction"	4	24	102	1
1	"self.11"	4	22	87	6	"extraction"	4	22	102	1
1	"self.11"	4	22	88	6	"extraction"	2	15	102	1
1	"self.11"	4	23	89	6	"extraction"	4	22	136	1
1	"self.11"	4	23	90	6	"extraction"	4	24	136	1
1	"self.11"	4	23	91	6	"extraction"	4	24	136	1
1	"self.11"	4	23	92	6	"extraction"	4	24	136	1
1	"self.11"	4	24	93	6	"extraction"	4	14	91	1
1	"self.11"	4	24	94	6	"extraction"	4	16	91	1
1	"self.11"	4	24	95	6	"extraction"	4	20	91	1
1	"self.11"	4	24	96	6	"extraction"	3	21	91	1
1	"self.11"	4	19	73	7	"extraction"	3	20	79	1
1	"self.11"	4	19	74	7	"extraction"	3	21	79	1
1	"self.11"	4	19	75	7	"extraction"	1	9	79	1
1	"self.11"	4	19	76	7	"extraction"	4	28	79	1
1	"self.11"	4	20	77	7	"extraction"	4	23	127	0
1	"self.11"	4	20	78	7	"extraction"	4	24	127	0
1	"self.11"	4	20	79	7	"extraction"	4	28	127	0
1	"self.11"	4	20	80	7	"extraction"	4	28	127	0
1	"self.11"	4	21	81	7	"extraction"	2	19	56	1
1	"self.11"	4	21	82	7	"extraction"	1	17	56	1
1	"self.11"	4	21	83	7	"extraction"	3	20	56	1
1	"self.11"	4	21	84	7	"extraction"	0	12	56	1
1	"self.11"	4	22	85	7	"extraction"	2	20	102	1
1	"self.11"	4	22	86	7	"extraction"	4	28	102	1
1	"self.11"	4	22	87	7	"extraction"	4	26	102	1
1	"self.11"	4	22	88	7	"extraction"	2	17	102	1
1	"self.11"	4	23	89	7	"extraction"	2	24	136	1
1	"self.11"	4	23	90	7	"extraction"	4	28	136	1
1	"self.11"	4	23	91	7	"extraction"	4	28	136	1
1	"self.11"	4	23	92	7	"extraction"	4	28	136	1
1	"self.11"	4	24	93	7	"extraction"	4	18	91	1
1	"self.11"	4	24	94	7	"extraction"	4	20	91	1
1	"self.11"	4	24	95	7	"extraction"	3	23	91	1
1	"self.11"	4	24	96	7	"extraction"	4	25	91	1
1	"self.11"	4	19	73	8	"extraction"	3	23	79	1
1	"self.11"	4	19	74	8	"extraction"	3	24	79	1
1	"self.11"	4	19	75	8	"extraction"	2	11	79	1
1	"self.11"	4	19	76	8	"extraction"	4	32	79	1
1	"self.11"	4	20	77	8	"extraction"	4	27	127	0
1	"self.11"	4	20	78	8	"extraction"	3	27	127	0
1	"self.11"	4	20	79	8	"extraction"	4	32	127	0
1	"self.11"	4	20	80	8	"extraction"	4	32	127	0
1	"self.11"	4	21	81	8	"extraction"	2	21	56	1
1	"self.11"	4	21	82	8	"extraction"	2	19	56	1
1	"self.11"	4	21	83	8	"extraction"	2	22	56	1
1	"self.11"	4	21	84	8	"extraction"	1	13	56	1
1	"self.11"	4	22	85	8	"extraction"	2	22	102	1
1	"self.11"	4	22	86	8	"extraction"	4	32	102	1
1	"self.11"	4	22	87	8	"extraction"	4	30	102	1
1	"self.11"	4	22	88	8	"extraction"	3	20	102	1
1	"self.11"	4	23	89	8	"extraction"	4	28	136	1
1	"self.11"	4	23	90	8	"extraction"	4	32	136	1
1	"self.11"	4	23	91	8	"extraction"	4	32	136	1
1	"self.11"	4	23	92	8	"extraction"	4	32	136	1
1	"self.11"	4	24	93	8	"extraction"	4	22	91	1
1	"self.11"	4	24	94	8	"extraction"	0	20	91	1
1	"self.11"	4	24	95	8	"extraction"	4	27	91	1
1	"self.11"	4	24	96	8	"extraction"	4	29	91	1
1	"self.11"	4	19	73	9	"extraction"	2	25	79	1
1	"self.11"	4	19	74	9	"extraction"	4	28	79	1
1	"self.11"	4	19	75	9	"extraction"	1	12	79	1
1	"self.11"	4	19	76	9	"extraction"	4	36	79	1
1	"self.11"	4	20	77	9	"extraction"	3	30	127	0
1	"self.11"	4	20	78	9	"extraction"	3	30	127	0
1	"self.11"	4	20	79	9	"extraction"	4	36	127	0
1	"self.11"	4	20	80	9	"extraction"	4	36	127	0
1	"self.11"	4	21	81	9	"extraction"	3	24	56	1
1	"self.11"	4	21	82	9	"extraction"	1	20	56	1
1	"self.11"	4	21	83	9	"extraction"	2	24	56	1
1	"self.11"	4	21	84	9	"extraction"	1	14	56	1
1	"self.11"	4	22	85	9	"extraction"	4	26	102	1
1	"self.11"	4	22	86	9	"extraction"	4	36	102	1
1	"self.11"	4	22	87	9	"extraction"	4	34	102	1
1	"self.11"	4	22	88	9	"extraction"	1	21	102	1
1	"self.11"	4	23	89	9	"extraction"	0	28	136	1
1	"self.11"	4	23	90	9	"extraction"	4	36	136	1
1	"self.11"	4	23	91	9	"extraction"	4	36	136	1
1	"self.11"	4	23	92	9	"extraction"	4	36	136	1
1	"self.11"	4	24	93	9	"extraction"	4	26	91	1
1	"self.11"	4	24	94	9	"extraction"	2	22	91	1
1	"self.11"	4	24	95	9	"extraction"	3	30	91	1
1	"self.11"	4	24	96	9	"extraction"	3	32	91	1
1	"self.11"	4	19	73	10	"extraction"	4	29	79	1
1	"self.11"	4	19	74	10	"extraction"	4	32	79	1
1	"self.11"	4	19	75	10	"extraction"	1	13	79	1
1	"self.11"	4	19	76	10	"extraction"	4	40	79	1
1	"self.11"	4	20	77	10	"extraction"	4	34	127	0
1	"self.11"	4	20	78	10	"extraction"	1	31	127	0
1	"self.11"	4	20	79	10	"extraction"	4	40	127	0
1	"self.11"	4	20	80	10	"extraction"	4	40	127	0
1	"self.11"	4	21	81	10	"extraction"	4	28	56	1
1	"self.11"	4	21	82	10	"extraction"	1	21	56	1
1	"self.11"	4	21	83	10	"extraction"	4	28	56	1
1	"self.11"	4	21	84	10	"extraction"	3	17	56	1
1	"self.11"	4	22	85	10	"extraction"	2	28	102	1
1	"self.11"	4	22	86	10	"extraction"	4	40	102	1
1	"self.11"	4	22	87	10	"extraction"	4	38	102	1
1	"self.11"	4	22	88	10	"extraction"	3	24	102	1
1	"self.11"	4	23	89	10	"extraction"	2	30	136	1
1	"self.11"	4	23	90	10	"extraction"	4	40	136	1
1	"self.11"	4	23	91	10	"extraction"	4	40	136	1
1	"self.11"	4	23	92	10	"extraction"	4	40	136	1
1	"self.11"	4	24	93	10	"extraction"	4	30	91	1
1	"self.11"	4	24	94	10	"extraction"	4	26	91	1
1	"self.11"	4	24	95	10	"extraction"	3	33	91	1
1	"self.11"	4	24	96	10	"extraction"	2	34	91	1
1	"self.11"	4	19	73	1	"contribution"	3	3	79	1
1	"self.11"	4	19	74	1	"contribution"	2	2	79	1
1	"self.11"	4	19	75	1	"contribution"	3	3	79	1
1	"self.11"	4	19	76	1	"contribution"	4	4	79	1
1	"self.11"	4	20	77	1	"contribution"	4	4	127	0
1	"self.11"	4	20	78	1	"contribution"	4	4	127	0
1	"self.11"	4	20	79	1	"contribution"	4	4	127	0
1	"self.11"	4	20	80	1	"contribution"	4	4	127	0
1	"self.11"	4	21	81	1	"contribution"	4	4	56	1
1	"self.11"	4	21	82	1	"contribution"	3	3	56	1
1	"self.11"	4	21	83	1	"contribution"	4	4	56	1
1	"self.11"	4	21	84	1	"contribution"	2	2	56	1
1	"self.11"	4	22	85	1	"contribution"	2	2	102	1
1	"self.11"	4	22	86	1	"contribution"	4	4	102	1
1	"self.11"	4	22	87	1	"contribution"	4	4	102	1
1	"self.11"	4	22	88	1	"contribution"	2	2	102	1
1	"self.11"	4	23	89	1	"contribution"	1	1	136	1
1	"self.11"	4	23	90	1	"contribution"	4	4	136	1
1	"self.11"	4	23	91	1	"contribution"	4	4	136	1
1	"self.11"	4	23	92	1	"contribution"	4	4	136	1
1	"self.11"	4	24	93	1	"contribution"	4	4	91	1
1	"self.11"	4	24	94	1	"contribution"	3	3	91	1
1	"self.11"	4	24	95	1	"contribution"	3	3	91	1
1	"self.11"	4	24	96	1	"contribution"	2	2	91	1
1	"self.11"	4	19	73	2	"contribution"	3	6	79	1
1	"self.11"	4	19	74	2	"contribution"	2	4	79	1
1	"self.11"	4	19	75	2	"contribution"	2	5	79	1
1	"self.11"	4	19	76	2	"contribution"	3	7	79	1
1	"self.11"	4	20	77	2	"contribution"	4	8	127	0
1	"self.11"	4	20	78	2	"contribution"	4	8	127	0
1	"self.11"	4	20	79	2	"contribution"	0	4	127	0
1	"self.11"	4	20	80	2	"contribution"	4	8	127	0
1	"self.11"	4	21	81	2	"contribution"	3	7	56	1
1	"self.11"	4	21	82	2	"contribution"	4	7	56	1
1	"self.11"	4	21	83	2	"contribution"	4	8	56	1
1	"self.11"	4	21	84	2	"contribution"	2	4	56	1
1	"self.11"	4	22	85	2	"contribution"	2	4	102	1
1	"self.11"	4	22	86	2	"contribution"	4	8	102	1
1	"self.11"	4	22	87	2	"contribution"	4	8	102	1
1	"self.11"	4	22	88	2	"contribution"	3	5	102	1
1	"self.11"	4	23	89	2	"contribution"	4	5	136	1
1	"self.11"	4	23	90	2	"contribution"	4	8	136	1
1	"self.11"	4	23	91	2	"contribution"	4	8	136	1
1	"self.11"	4	23	92	2	"contribution"	4	8	136	1
1	"self.11"	4	24	93	2	"contribution"	4	8	91	1
1	"self.11"	4	24	94	2	"contribution"	3	6	91	1
1	"self.11"	4	24	95	2	"contribution"	3	6	91	1
1	"self.11"	4	24	96	2	"contribution"	3	5	91	1
1	"self.11"	4	19	73	3	"contribution"	2	8	79	1
1	"self.11"	4	19	74	3	"contribution"	2	6	79	1
1	"self.11"	4	19	75	3	"contribution"	2	7	79	1
1	"self.11"	4	19	76	3	"contribution"	2	9	79	1
1	"self.11"	4	20	77	3	"contribution"	2	10	127	0
1	"self.11"	4	20	78	3	"contribution"	4	12	127	0
1	"self.11"	4	20	79	3	"contribution"	0	4	127	0
1	"self.11"	4	20	80	3	"contribution"	4	12	127	0
1	"self.11"	4	21	81	3	"contribution"	2	9	56	1
1	"self.11"	4	21	82	3	"contribution"	3	10	56	1
1	"self.11"	4	21	83	3	"contribution"	3	11	56	1
1	"self.11"	4	21	84	3	"contribution"	2	6	56	1
1	"self.11"	4	22	85	3	"contribution"	4	8	102	1
1	"self.11"	4	22	86	3	"contribution"	4	12	102	1
1	"self.11"	4	22	87	3	"contribution"	4	12	102	1
1	"self.11"	4	22	88	3	"contribution"	2	7	102	1
1	"self.11"	4	23	89	3	"contribution"	4	9	136	1
1	"self.11"	4	23	90	3	"contribution"	4	12	136	1
1	"self.11"	4	23	91	3	"contribution"	4	12	136	1
1	"self.11"	4	23	92	3	"contribution"	4	12	136	1
1	"self.11"	4	24	93	3	"contribution"	4	12	91	1
1	"self.11"	4	24	94	3	"contribution"	3	9	91	1
1	"self.11"	4	24	95	3	"contribution"	3	9	91	1
1	"self.11"	4	24	96	3	"contribution"	2	7	91	1
1	"self.11"	4	19	73	4	"contribution"	2	10	79	1
1	"self.11"	4	19	74	4	"contribution"	2	8	79	1
1	"self.11"	4	19	75	4	"contribution"	3	10	79	1
1	"self.11"	4	19	76	4	"contribution"	4	13	79	1
1	"self.11"	4	20	77	4	"contribution"	3	13	127	0
1	"self.11"	4	20	78	4	"contribution"	4	16	127	0
1	"self.11"	4	20	79	4	"contribution"	0	4	127	0
1	"self.11"	4	20	80	4	"contribution"	4	16	127	0
1	"self.11"	4	21	81	4	"contribution"	1	10	56	1
1	"self.11"	4	21	82	4	"contribution"	2	12	56	1
1	"self.11"	4	21	83	4	"contribution"	1	12	56	1
1	"self.11"	4	21	84	4	"contribution"	2	8	56	1
1	"self.11"	4	22	85	4	"contribution"	4	12	102	1
1	"self.11"	4	22	86	4	"contribution"	4	16	102	1
1	"self.11"	4	22	87	4	"contribution"	4	16	102	1
1	"self.11"	4	22	88	4	"contribution"	0	7	102	1
1	"self.11"	4	23	89	4	"contribution"	4	13	136	1
1	"self.11"	4	23	90	4	"contribution"	3	15	136	1
1	"self.11"	4	23	91	4	"contribution"	4	16	136	1
1	"self.11"	4	23	92	4	"contribution"	3	15	136	1
1	"self.11"	4	24	93	4	"contribution"	2	14	91	1
1	"self.11"	4	24	94	4	"contribution"	4	13	91	1
1	"self.11"	4	24	95	4	"contribution"	3	12	91	1
1	"self.11"	4	24	96	4	"contribution"	2	9	91	1
1	"self.11"	4	19	73	5	"contribution"	3	13	79	1
1	"self.11"	4	19	74	5	"contribution"	2	10	79	1
1	"self.11"	4	19	75	5	"contribution"	3	13	79	1
1	"self.11"	4	19	76	5	"contribution"	3	16	79	1
1	"self.11"	4	20	77	5	"contribution"	4	17	127	0
1	"self.11"	4	20	78	5	"contribution"	4	20	127	0
1	"self.11"	4	20	79	5	"contribution"	0	4	127	0
1	"self.11"	4	20	80	5	"contribution"	4	20	127	0
1	"self.11"	4	21	81	5	"contribution"	3	13	56	1
1	"self.11"	4	21	82	5	"contribution"	0	12	56	1
1	"self.11"	4	21	83	5	"contribution"	1	13	56	1
1	"self.11"	4	21	84	5	"contribution"	2	10	56	1
1	"self.11"	4	22	85	5	"contribution"	2	14	102	1
1	"self.11"	4	22	86	5	"contribution"	4	20	102	1
1	"self.11"	4	22	87	5	"contribution"	4	20	102	1
1	"self.11"	4	22	88	5	"contribution"	2	9	102	1
1	"self.11"	4	23	89	5	"contribution"	4	17	136	1
1	"self.11"	4	23	90	5	"contribution"	1	16	136	1
1	"self.11"	4	23	91	5	"contribution"	4	20	136	1
1	"self.11"	4	23	92	5	"contribution"	3	18	136	1
1	"self.11"	4	24	93	5	"contribution"	2	16	91	1
1	"self.11"	4	24	94	5	"contribution"	0	13	91	1
1	"self.11"	4	24	95	5	"contribution"	2	14	91	1
1	"self.11"	4	24	96	5	"contribution"	1	10	91	1
1	"self.11"	4	19	73	6	"contribution"	1	14	79	1
1	"self.11"	4	19	74	6	"contribution"	1	11	79	1
1	"self.11"	4	19	75	6	"contribution"	2	15	79	1
1	"self.11"	4	19	76	6	"contribution"	3	19	79	1
1	"self.11"	4	20	77	6	"contribution"	4	21	127	0
1	"self.11"	4	20	78	6	"contribution"	4	24	127	0
1	"self.11"	4	20	79	6	"contribution"	0	4	127	0
1	"self.11"	4	20	80	6	"contribution"	4	24	127	0
1	"self.11"	4	21	81	6	"contribution"	1	14	56	1
1	"self.11"	4	21	82	6	"contribution"	1	13	56	1
1	"self.11"	4	21	83	6	"contribution"	1	14	56	1
1	"self.11"	4	21	84	6	"contribution"	2	12	56	1
1	"self.11"	4	22	85	6	"contribution"	2	16	102	1
1	"self.11"	4	22	86	6	"contribution"	4	24	102	1
1	"self.11"	4	22	87	6	"contribution"	4	24	102	1
1	"self.11"	4	22	88	6	"contribution"	2	11	102	1
1	"self.11"	4	23	89	6	"contribution"	4	21	136	1
1	"self.11"	4	23	90	6	"contribution"	1	17	136	1
1	"self.11"	4	23	91	6	"contribution"	4	24	136	1
1	"self.11"	4	23	92	6	"contribution"	4	22	136	1
1	"self.11"	4	24	93	6	"contribution"	1	17	91	1
1	"self.11"	4	24	94	6	"contribution"	2	15	91	1
1	"self.11"	4	24	95	6	"contribution"	3	17	91	1
1	"self.11"	4	24	96	6	"contribution"	2	12	91	1
1	"self.11"	4	19	73	7	"contribution"	1	15	79	1
1	"self.11"	4	19	74	7	"contribution"	2	13	79	1
1	"self.11"	4	19	75	7	"contribution"	2	17	79	1
1	"self.11"	4	19	76	7	"contribution"	1	20	79	1
1	"self.11"	4	20	77	7	"contribution"	4	25	127	0
1	"self.11"	4	20	78	7	"contribution"	4	28	127	0
1	"self.11"	4	20	79	7	"contribution"	0	4	127	0
1	"self.11"	4	20	80	7	"contribution"	4	28	127	0
1	"self.11"	4	21	81	7	"contribution"	1	15	56	1
1	"self.11"	4	21	82	7	"contribution"	0	13	56	1
1	"self.11"	4	21	83	7	"contribution"	0	14	56	1
1	"self.11"	4	21	84	7	"contribution"	1	13	56	1
1	"self.11"	4	22	85	7	"contribution"	2	18	102	1
1	"self.11"	4	22	86	7	"contribution"	4	28	102	1
1	"self.11"	4	22	87	7	"contribution"	2	26	102	1
1	"self.11"	4	22	88	7	"contribution"	3	14	102	1
1	"self.11"	4	23	89	7	"contribution"	4	25	136	1
1	"self.11"	4	23	90	7	"contribution"	4	21	136	1
1	"self.11"	4	23	91	7	"contribution"	4	28	136	1
1	"self.11"	4	23	92	7	"contribution"	4	26	136	1
1	"self.11"	4	24	93	7	"contribution"	1	18	91	1
1	"self.11"	4	24	94	7	"contribution"	2	17	91	1
1	"self.11"	4	24	95	7	"contribution"	3	20	91	1
1	"self.11"	4	24	96	7	"contribution"	4	16	91	1
1	"self.11"	4	19	73	8	"contribution"	0	15	79	1
1	"self.11"	4	19	74	8	"contribution"	2	15	79	1
1	"self.11"	4	19	75	8	"contribution"	3	20	79	1
1	"self.11"	4	19	76	8	"contribution"	3	23	79	1
1	"self.11"	4	20	77	8	"contribution"	4	29	127	0
1	"self.11"	4	20	78	8	"contribution"	4	32	127	0
1	"self.11"	4	20	79	8	"contribution"	4	8	127	0
1	"self.11"	4	20	80	8	"contribution"	4	32	127	0
1	"self.11"	4	21	81	8	"contribution"	0	15	56	1
1	"self.11"	4	21	82	8	"contribution"	0	13	56	1
1	"self.11"	4	21	83	8	"contribution"	0	14	56	1
1	"self.11"	4	21	84	8	"contribution"	0	13	56	1
1	"self.11"	4	22	85	8	"contribution"	2	20	102	1
1	"self.11"	4	22	86	8	"contribution"	4	32	102	1
1	"self.11"	4	22	87	8	"contribution"	0	26	102	1
1	"self.11"	4	22	88	8	"contribution"	3	17	102	1
1	"self.11"	4	23	89	8	"contribution"	4	29	136	1
1	"self.11"	4	23	90	8	"contribution"	4	25	136	1
1	"self.11"	4	23	91	8	"contribution"	4	32	136	1
1	"self.11"	4	23	92	8	"contribution"	4	30	136	1
1	"self.11"	4	24	93	8	"contribution"	4	22	91	1
1	"self.11"	4	24	94	8	"contribution"	2	19	91	1
1	"self.11"	4	24	95	8	"contribution"	2	22	91	1
1	"self.11"	4	24	96	8	"contribution"	3	19	91	1
1	"self.11"	4	19	73	9	"contribution"	1	16	79	1
1	"self.11"	4	19	74	9	"contribution"	0	15	79	1
1	"self.11"	4	19	75	9	"contribution"	2	22	79	1
1	"self.11"	4	19	76	9	"contribution"	1	24	79	1
1	"self.11"	4	20	77	9	"contribution"	4	33	127	0
1	"self.11"	4	20	78	9	"contribution"	4	36	127	0
1	"self.11"	4	20	79	9	"contribution"	4	12	127	0
1	"self.11"	4	20	80	9	"contribution"	4	36	127	0
1	"self.11"	4	21	81	9	"contribution"	0	15	56	1
1	"self.11"	4	21	82	9	"contribution"	0	13	56	1
1	"self.11"	4	21	83	9	"contribution"	0	14	56	1
1	"self.11"	4	21	84	9	"contribution"	1	14	56	1
1	"self.11"	4	22	85	9	"contribution"	2	22	102	1
1	"self.11"	4	22	86	9	"contribution"	0	32	102	1
1	"self.11"	4	22	87	9	"contribution"	0	26	102	1
1	"self.11"	4	22	88	9	"contribution"	3	20	102	1
1	"self.11"	4	23	89	9	"contribution"	4	33	136	1
1	"self.11"	4	23	90	9	"contribution"	4	29	136	1
1	"self.11"	4	23	91	9	"contribution"	4	36	136	1
1	"self.11"	4	23	92	9	"contribution"	4	34	136	1
1	"self.11"	4	24	93	9	"contribution"	1	23	91	1
1	"self.11"	4	24	94	9	"contribution"	0	19	91	1
1	"self.11"	4	24	95	9	"contribution"	1	23	91	1
1	"self.11"	4	24	96	9	"contribution"	1	20	91	1
1	"self.11"	4	19	73	10	"contribution"	1	17	79	1
1	"self.11"	4	19	74	10	"contribution"	0	15	79	1
1	"self.11"	4	19	75	10	"contribution"	1	23	79	1
1	"self.11"	4	19	76	10	"contribution"	1	25	79	1
1	"self.11"	4	20	77	10	"contribution"	4	37	127	0
1	"self.11"	4	20	78	10	"contribution"	1	37	127	0
1	"self.11"	4	20	79	10	"contribution"	0	12	127	0
1	"self.11"	4	20	80	10	"contribution"	1	37	127	0
1	"self.11"	4	21	81	10	"contribution"	0	15	56	1
1	"self.11"	4	21	82	10	"contribution"	0	13	56	1
1	"self.11"	4	21	83	10	"contribution"	0	14	56	1
1	"self.11"	4	21	84	10	"contribution"	0	14	56	1
1	"self.11"	4	22	85	10	"contribution"	1	23	102	1
1	"self.11"	4	22	86	10	"contribution"	1	33	102	1
1	"self.11"	4	22	87	10	"contribution"	1	27	102	1
1	"self.11"	4	22	88	10	"contribution"	1	21	102	1
1	"self.11"	4	23	89	10	"contribution"	1	34	136	1
1	"self.11"	4	23	90	10	"contribution"	2	31	136	1
1	"self.11"	4	23	91	10	"contribution"	2	38	136	1
1	"self.11"	4	23	92	10	"contribution"	2	36	136	1
1	"self.11"	4	24	93	10	"contribution"	2	25	91	1
1	"self.11"	4	24	94	10	"contribution"	2	21	91	1
1	"self.11"	4	24	95	10	"contribution"	2	25	91	1
1	"self.11"	4	24	96	10	"contribution"	3	23	91	1
