""	"session"	"context_free"	"Period"	"Subject"	"president"	"replace"	"everReplaced"	"PlayerNum"	"decision"
"1"	1	0	1	1	2	0	0	"2"	1
"2"	1	0	1	2	1	0	0	"1"	0
"3"	1	0	1	3	1	0	0	"2"	1
"4"	1	0	1	4	2	0	0	"2"	1
"5"	1	0	1	5	2	0	0	"1"	1
"6"	1	0	1	6	1	0	0	"2"	0
"7"	1	0	1	7	1	0	0	"2"	1
"8"	1	0	1	8	1	0	0	"1"	1
"9"	1	0	1	9	2	0	0	"1"	1
"10"	1	0	1	10	2	0	0	"1"	1
"11"	1	0	1	11	1	0	0	"1"	0
"12"	1	0	1	12	1	0	0	"2"	0
"13"	1	0	2	1	2	0	0	"2"	1
"14"	1	0	2	2	1	0	0	"1"	1
"15"	1	0	2	3	1	0	0	"2"	1
"16"	1	0	2	4	2	0	0	"2"	1
"17"	1	0	2	5	2	0	0	"1"	1
"18"	1	0	2	6	1	0	0	"2"	1
"19"	1	0	2	7	1	0	0	"2"	1
"20"	1	0	2	8	1	0	0	"1"	1
"21"	1	0	2	9	2	0	0	"1"	1
"22"	1	0	2	10	2	0	0	"1"	1
"23"	1	0	2	11	1	0	0	"1"	1
"24"	1	0	2	12	1	0	0	"2"	1
"25"	1	0	3	1	2	0	0	"2"	1
"26"	1	0	3	2	1	0	0	"1"	1
"27"	1	0	3	3	1	0	0	"2"	1
"28"	1	0	3	4	2	0	0	"2"	1
"29"	1	0	3	5	2	0	0	"1"	1
"30"	1	0	3	6	1	0	0	"2"	1
"31"	1	0	3	7	1	0	0	"2"	1
"32"	1	0	3	8	1	0	0	"1"	1
"33"	1	0	3	9	2	0	0	"1"	1
"34"	1	0	3	10	2	0	0	"1"	1
"35"	1	0	3	11	1	0	0	"1"	1
"36"	1	0	3	12	1	0	0	"2"	1
"37"	2	0	1	1	1	0	0	"1"	1
"38"	2	0	1	2	1	0	0	"2"	1
"39"	2	0	1	3	1	0	0	"2"	1
"40"	2	0	1	4	1	0	0	"1"	1
"41"	2	0	1	5	1	0	0	"1"	1
"42"	2	0	1	6	1	0	0	"2"	1
"43"	2	0	1	7	1	0	0	"2"	1
"44"	2	0	1	8	1	0	0	"1"	1
"45"	2	0	1	9	1	0	0	"1"	1
"46"	2	0	1	10	1	0	0	"2"	1
"47"	2	0	1	11	1	0	0	"2"	1
"48"	2	0	1	12	1	0	0	"1"	1
"49"	2	0	2	1	1	0	0	"-"	1
"50"	2	0	2	2	1	0	0	"-"	1
"51"	2	0	2	3	1	0	0	"-"	1
"52"	2	0	2	4	1	0	0	"-"	1
"53"	2	0	2	5	1	0	0	"-"	1
"54"	2	0	2	6	1	0	0	"-"	1
"55"	2	0	2	7	1	0	0	"-"	1
"56"	2	0	2	8	1	0	0	"-"	1
"57"	2	0	2	9	1	0	0	"-"	1
"58"	2	0	2	10	1	0	0	"-"	1
"59"	2	0	2	11	1	0	0	"-"	1
"60"	2	0	2	12	1	0	0	"-"	1
"61"	2	0	3	1	1	0	0	"-"	1
"62"	2	0	3	2	1	0	0	"-"	1
"63"	2	0	3	3	1	0	0	"-"	1
"64"	2	0	3	4	1	0	0	"-"	1
"65"	2	0	3	5	1	0	0	"-"	1
"66"	2	0	3	6	1	1	1	"-"	1
"67"	2	0	3	7	1	0	0	"-"	1
"68"	2	0	3	8	1	0	0	"-"	1
"69"	2	0	3	9	1	0	0	"-"	1
"70"	2	0	3	10	1	0	0	"-"	1
"71"	2	0	3	11	1	0	0	"-"	1
"72"	2	0	3	12	1	1	1	"-"	1
"73"	2	0	4	1	1	0	0	"-"	1
"74"	2	0	4	2	1	0	0	"-"	1
"75"	2	0	4	3	1	0	0	"-"	1
"76"	2	0	4	4	1	0	0	"-"	1
"77"	2	0	4	5	1	0	0	"-"	1
"78"	2	0	4	6	3	0	1	"-"	0
"79"	2	0	4	7	1	0	0	"-"	1
"80"	2	0	4	8	1	0	0	"-"	1
"81"	2	0	4	9	1	0	0	"-"	1
"82"	2	0	4	10	1	0	0	"-"	1
"83"	2	0	4	11	1	0	0	"-"	1
"84"	2	0	4	12	3	0	1	"-"	0
"85"	2	0	5	1	1	0	0	"-"	1
"86"	2	0	5	2	1	0	0	"-"	1
"87"	2	0	5	3	1	0	0	"-"	1
"88"	2	0	5	4	1	0	0	"-"	1
"89"	2	0	5	5	1	0	0	"-"	1
"90"	2	0	5	6	3	1	1	"-"	0
"91"	2	0	5	7	1	0	0	"-"	1
"92"	2	0	5	8	1	0	0	"-"	1
"93"	2	0	5	9	1	0	0	"-"	1
"94"	2	0	5	10	1	0	0	"-"	1
"95"	2	0	5	11	1	0	0	"-"	1
"96"	2	0	5	12	3	1	1	"-"	0
"97"	2	0	6	1	1	0	0	"-"	1
"98"	2	0	6	2	1	0	0	"-"	1
"99"	2	0	6	3	1	0	0	"-"	1
"100"	2	0	6	4	1	0	0	"-"	1
"101"	2	0	6	5	1	0	0	"-"	1
"102"	2	0	6	6	3	0	1	"-"	0
"103"	2	0	6	7	1	0	0	"-"	1
"104"	2	0	6	8	1	0	0	"-"	1
"105"	2	0	6	9	1	0	0	"-"	1
"106"	2	0	6	10	1	0	0	"-"	1
"107"	2	0	6	11	1	0	0	"-"	1
"108"	2	0	6	12	3	0	1	"-"	0
"109"	2	0	7	1	1	0	0	"-"	1
"110"	2	0	7	2	1	0	0	"-"	1
"111"	2	0	7	3	1	0	0	"-"	1
"112"	2	0	7	4	1	0	0	"-"	1
"113"	2	0	7	5	1	0	0	"-"	1
"114"	2	0	7	6	3	0	1	"-"	0
"115"	2	0	7	7	1	0	0	"-"	1
"116"	2	0	7	8	1	0	0	"-"	1
"117"	2	0	7	9	1	0	0	"-"	1
"118"	2	0	7	10	1	0	0	"-"	1
"119"	2	0	7	11	1	0	0	"-"	1
"120"	2	0	7	12	3	0	1	"-"	0
"121"	2	0	8	1	1	0	0	"-"	1
"122"	2	0	8	2	1	0	0	"-"	1
"123"	2	0	8	3	1	0	0	"-"	1
"124"	2	0	8	4	1	0	0	"-"	1
"125"	2	0	8	5	1	0	0	"-"	1
"126"	2	0	8	6	3	0	1	"-"	0
"127"	2	0	8	7	1	0	0	"-"	1
"128"	2	0	8	8	1	0	0	"-"	1
"129"	2	0	8	9	1	0	0	"-"	1
"130"	2	0	8	10	1	0	0	"-"	1
"131"	2	0	8	11	1	0	0	"-"	1
"132"	2	0	8	12	3	0	1	"-"	0
"133"	2	0	9	1	1	0	0	"-"	1
"134"	2	0	9	2	1	0	0	"-"	1
"135"	2	0	9	3	1	0	0	"-"	1
"136"	2	0	9	4	1	0	0	"-"	1
"137"	2	0	9	5	1	0	0	"-"	1
"138"	2	0	9	6	3	0	1	"-"	0
"139"	2	0	9	7	1	0	0	"-"	1
"140"	2	0	9	8	1	0	0	"-"	1
"141"	2	0	9	9	1	0	0	"-"	1
"142"	2	0	9	10	1	0	0	"-"	1
"143"	2	0	9	11	1	0	0	"-"	1
"144"	2	0	9	12	3	0	1	"-"	0
"145"	2	0	10	1	1	0	0	"-"	1
"146"	2	0	10	2	1	0	0	"-"	0
"147"	2	0	10	3	1	0	0	"-"	1
"148"	2	0	10	4	1	0	0	"-"	1
"149"	2	0	10	5	1	0	0	"-"	1
"150"	2	0	10	6	3	0	1	"-"	0
"151"	2	0	10	7	1	0	0	"-"	1
"152"	2	0	10	8	1	0	0	"-"	0
"153"	2	0	10	9	1	0	0	"-"	1
"154"	2	0	10	10	1	0	0	"-"	1
"155"	2	0	10	11	1	0	0	"-"	1
"156"	2	0	10	12	3	0	1	"-"	0
"157"	3	0	1	1	2	0	0	"2"	1
"158"	3	0	1	2	1	0	0	"1"	1
"159"	3	0	1	3	1	0	0	"2"	1
"160"	3	0	1	4	2	0	0	"2"	1
"161"	3	0	1	5	1	0	0	"1"	1
"162"	3	0	1	6	1	0	0	"1"	1
"163"	3	0	1	7	1	0	0	"1"	0
"164"	3	0	1	8	2	0	0	"2"	1
"165"	3	0	1	9	2	0	0	"2"	0
"166"	3	0	1	10	2	0	0	"2"	1
"167"	3	0	1	11	1	0	0	"1"	0
"168"	3	0	1	12	2	0	0	"2"	0
"169"	3	0	1	13	1	0	0	"2"	1
"170"	3	0	1	14	2	0	0	"2"	1
"171"	3	0	1	15	2	0	0	"1"	1
"172"	3	0	1	16	1	0	0	"2"	1
"173"	3	0	1	17	2	0	0	"1"	1
"174"	3	0	1	18	2	0	0	"1"	1
"175"	3	0	1	19	2	0	0	"1"	1
"176"	3	0	1	20	2	0	0	"1"	1
"177"	3	0	1	21	2	0	0	"1"	1
"178"	3	0	1	22	1	0	0	"2"	1
"179"	3	0	2	1	2	0	0	"2"	1
"180"	3	0	2	2	1	0	0	"1"	1
"181"	3	0	2	3	1	0	0	"2"	1
"182"	3	0	2	4	2	0	0	"2"	1
"183"	3	0	2	5	1	0	0	"1"	1
"184"	3	0	2	6	1	0	0	"1"	1
"185"	3	0	2	7	1	0	0	"1"	0
"186"	3	0	2	8	2	0	0	"2"	1
"187"	3	0	2	9	2	0	0	"2"	0
"188"	3	0	2	10	2	0	0	"2"	1
"189"	3	0	2	11	1	0	0	"1"	0
"190"	3	0	2	12	2	0	0	"2"	0
"191"	3	0	2	13	1	0	0	"2"	1
"192"	3	0	2	14	2	0	0	"2"	1
"193"	3	0	2	15	2	0	0	"1"	1
"194"	3	0	2	16	1	0	0	"2"	1
"195"	3	0	2	17	2	0	0	"1"	1
"196"	3	0	2	18	2	0	0	"1"	1
"197"	3	0	2	19	2	0	0	"1"	1
"198"	3	0	2	20	2	0	0	"1"	1
"199"	3	0	2	21	2	0	0	"1"	1
"200"	3	0	2	22	1	0	0	"2"	1
"201"	3	0	3	1	2	0	0	"2"	1
"202"	3	0	3	2	1	0	0	"1"	1
"203"	3	0	3	3	1	0	0	"2"	1
"204"	3	0	3	4	2	0	0	"2"	1
"205"	3	0	3	5	1	0	0	"1"	1
"206"	3	0	3	6	1	0	0	"1"	1
"207"	3	0	3	7	1	0	0	"1"	0
"208"	3	0	3	8	2	0	0	"2"	1
"209"	3	0	3	9	2	0	0	"2"	0
"210"	3	0	3	10	2	0	0	"2"	1
"211"	3	0	3	11	1	0	0	"1"	0
"212"	3	0	3	12	2	0	0	"2"	0
"213"	3	0	3	13	1	0	0	"2"	1
"214"	3	0	3	14	2	0	0	"2"	1
"215"	3	0	3	15	2	0	0	"1"	1
"216"	3	0	3	16	1	0	0	"2"	1
"217"	3	0	3	17	2	0	0	"1"	1
"218"	3	0	3	18	2	0	0	"1"	1
"219"	3	0	3	19	2	0	0	"1"	1
"220"	3	0	3	20	2	0	0	"1"	1
"221"	3	0	3	21	2	0	0	"1"	1
"222"	3	0	3	22	1	0	0	"2"	1
"223"	3	0	1	1	2	0	0	"2"	1
"224"	3	0	1	2	1	0	0	"2"	1
"225"	3	0	1	3	1	0	0	"2"	1
"226"	3	0	1	4	1	0	0	"2"	1
"227"	3	0	1	5	1	0	0	"2"	1
"228"	3	0	1	6	2	0	0	"1"	1
"229"	3	0	1	7	1	0	0	"1"	0
"230"	3	0	1	8	2	0	0	"1"	1
"231"	3	0	1	9	2	0	0	"1"	1
"232"	3	0	1	10	2	1	0	"2"	0
"233"	3	0	1	11	2	0	0	"1"	1
"234"	3	0	1	12	1	0	0	"1"	0
"235"	3	0	1	13	2	0	0	"1"	1
"236"	3	0	1	14	1	1	1	"1"	0
"237"	3	0	1	15	2	0	0	"2"	1
"238"	3	0	1	16	1	0	0	"2"	1
"239"	3	0	1	17	2	0	0	"2"	0
"240"	3	0	1	18	2	0	0	"1"	1
"241"	3	0	1	19	2	0	0	"1"	1
"242"	3	0	1	20	1	0	0	"2"	0
"243"	3	0	1	21	1	0	0	"2"	1
"244"	3	0	1	22	2	0	0	"1"	1
"245"	3	0	2	1	2	0	0	"2"	1
"246"	3	0	2	2	1	0	0	"2"	1
"247"	3	0	2	3	1	0	0	"2"	1
"248"	3	0	2	4	1	0	0	"2"	1
"249"	3	0	2	5	1	0	0	"2"	1
"250"	3	0	2	6	2	0	0	"1"	1
"251"	3	0	2	7	1	0	0	"1"	0
"252"	3	0	2	8	2	0	0	"1"	1
"253"	3	0	2	9	2	0	0	"1"	1
"254"	3	0	2	10	1	0	0	"2"	0
"255"	3	0	2	11	2	0	0	"1"	1
"256"	3	0	2	12	1	0	0	"1"	0
"257"	3	0	2	13	2	0	0	"1"	1
"258"	3	0	2	14	3	0	1	"1"	0
"259"	3	0	2	15	2	0	0	"2"	1
"260"	3	0	2	16	1	0	0	"2"	1
"261"	3	0	2	17	2	0	0	"2"	0
"262"	3	0	2	18	2	0	0	"1"	1
"263"	3	0	2	19	2	0	0	"1"	1
"264"	3	0	2	20	1	0	0	"2"	0
"265"	3	0	2	21	1	0	0	"2"	1
"266"	3	0	2	22	2	0	0	"1"	1
"267"	3	0	3	1	2	0	0	"2"	1
"268"	3	0	3	2	1	0	0	"2"	1
"269"	3	0	3	3	1	0	0	"2"	1
"270"	3	0	3	4	1	0	0	"2"	1
"271"	3	0	3	5	1	0	0	"2"	1
"272"	3	0	3	6	2	0	0	"1"	1
"273"	3	0	3	7	1	0	0	"1"	0
"274"	3	0	3	8	2	0	0	"1"	1
"275"	3	0	3	9	2	0	0	"1"	1
"276"	3	0	3	10	1	0	0	"2"	0
"277"	3	0	3	11	2	0	0	"1"	1
"278"	3	0	3	12	1	1	1	"1"	0
"279"	3	0	3	13	2	0	0	"1"	1
"280"	3	0	3	14	3	0	1	"1"	0
"281"	3	0	3	15	2	0	0	"2"	1
"282"	3	0	3	16	1	0	0	"2"	1
"283"	3	0	3	17	2	0	0	"2"	0
"284"	3	0	3	18	2	0	0	"1"	1
"285"	3	0	3	19	2	0	0	"1"	1
"286"	3	0	3	20	1	1	1	"2"	0
"287"	3	0	3	21	1	0	0	"2"	1
"288"	3	0	3	22	2	0	0	"1"	1
"289"	3	0	4	1	2	0	0	"2"	1
"290"	3	0	4	2	1	0	0	"2"	1
"291"	3	0	4	3	1	0	0	"2"	1
"292"	3	0	4	4	1	0	0	"2"	1
"293"	3	0	4	5	1	0	0	"2"	1
"294"	3	0	4	6	2	0	0	"1"	1
"295"	3	0	4	7	1	0	0	"1"	0
"296"	3	0	4	8	2	0	0	"1"	1
"297"	3	0	4	9	2	1	0	"1"	1
"298"	3	0	4	10	1	1	1	"2"	0
"299"	3	0	4	11	2	0	0	"1"	1
"300"	3	0	4	12	2	0	1	"1"	1
"301"	3	0	4	13	2	0	0	"1"	1
"302"	3	0	4	14	3	1	1	"1"	0
"303"	3	0	4	15	2	1	0	"2"	1
"304"	3	0	4	16	1	0	0	"2"	1
"305"	3	0	4	17	2	0	0	"2"	0
"306"	3	0	4	18	2	0	0	"1"	1
"307"	3	0	4	19	2	0	0	"1"	1
"308"	3	0	4	20	3	0	1	"2"	1
"309"	3	0	4	21	1	0	0	"2"	1
"310"	3	0	4	22	2	0	0	"1"	1
"311"	3	0	5	1	2	0	0	"2"	1
"312"	3	0	5	2	1	0	0	"2"	1
"313"	3	0	5	3	1	0	0	"2"	1
"314"	3	0	5	4	1	0	0	"2"	1
"315"	3	0	5	5	1	0	0	"2"	1
"316"	3	0	5	6	2	0	0	"1"	1
"317"	3	0	5	7	1	0	0	"1"	0
"318"	3	0	5	8	2	0	0	"1"	1
"319"	3	0	5	9	1	0	0	"1"	1
"320"	3	0	5	10	2	0	1	"2"	1
"321"	3	0	5	11	2	0	0	"1"	1
"322"	3	0	5	12	2	0	1	"1"	1
"323"	3	0	5	13	2	0	0	"1"	1
"324"	3	0	5	14	2	0	1	"1"	1
"325"	3	0	5	15	2	0	0	"2"	1
"326"	3	0	5	16	1	0	0	"2"	1
"327"	3	0	5	17	2	0	0	"2"	0
"328"	3	0	5	18	2	0	0	"1"	1
"329"	3	0	5	19	2	0	0	"1"	1
"330"	3	0	5	20	3	0	1	"2"	1
"331"	3	0	5	21	1	0	0	"2"	1
"332"	3	0	5	22	2	0	0	"1"	1
"333"	3	0	6	1	2	0	0	"2"	1
"334"	3	0	6	2	1	0	0	"2"	1
"335"	3	0	6	3	1	0	0	"2"	1
"336"	3	0	6	4	1	0	0	"2"	1
"337"	3	0	6	5	1	0	0	"2"	1
"338"	3	0	6	6	2	0	0	"1"	1
"339"	3	0	6	7	1	0	0	"1"	0
"340"	3	0	6	8	2	0	0	"1"	1
"341"	3	0	6	9	1	0	0	"1"	0
"342"	3	0	6	10	2	0	1	"2"	1
"343"	3	0	6	11	2	0	0	"1"	1
"344"	3	0	6	12	2	0	1	"1"	1
"345"	3	0	6	13	2	0	0	"1"	1
"346"	3	0	6	14	2	0	1	"1"	1
"347"	3	0	6	15	2	0	0	"2"	0
"348"	3	0	6	16	1	0	0	"2"	1
"349"	3	0	6	17	2	0	0	"2"	0
"350"	3	0	6	18	2	0	0	"1"	1
"351"	3	0	6	19	2	0	0	"1"	1
"352"	3	0	6	20	3	0	1	"2"	1
"353"	3	0	6	21	1	0	0	"2"	1
"354"	3	0	6	22	2	0	0	"1"	1
"355"	4	0	1	1	2	0	0	"1"	1
"356"	4	0	1	2	1	0	0	"1"	1
"357"	4	0	1	3	1	0	0	"1"	0
"358"	4	0	1	4	2	0	0	"1"	1
"359"	4	0	1	5	1	1	1	"2"	1
"360"	4	0	1	6	1	0	0	"1"	1
"361"	4	0	1	7	2	0	0	"1"	1
"362"	4	0	1	8	2	0	0	"2"	1
"363"	4	0	1	9	2	0	0	"1"	1
"364"	4	0	1	10	2	0	0	"2"	1
"365"	4	0	1	11	1	0	0	"2"	1
"366"	4	0	1	12	1	0	0	"2"	1
"367"	4	0	1	13	2	0	0	"2"	0
"368"	4	0	1	14	1	0	0	"2"	0
"369"	4	0	1	15	2	0	0	"2"	1
"370"	4	0	1	16	2	1	0	"1"	1
"371"	4	0	1	17	1	0	0	"1"	0
"372"	4	0	1	18	1	0	0	"2"	1
"373"	4	0	2	1	2	0	0	"1"	1
"374"	4	0	2	2	1	0	0	"1"	1
"375"	4	0	2	3	1	0	0	"1"	0
"376"	4	0	2	4	2	0	0	"1"	1
"377"	4	0	2	5	3	0	1	"2"	0
"378"	4	0	2	6	1	0	0	"1"	1
"379"	4	0	2	7	2	0	0	"1"	1
"380"	4	0	2	8	2	0	0	"2"	1
"381"	4	0	2	9	2	0	0	"1"	1
"382"	4	0	2	10	2	0	0	"2"	1
"383"	4	0	2	11	1	0	0	"2"	1
"384"	4	0	2	12	1	0	0	"2"	1
"385"	4	0	2	13	2	0	0	"2"	1
"386"	4	0	2	14	1	0	0	"2"	0
"387"	4	0	2	15	2	0	0	"2"	1
"388"	4	0	2	16	1	0	0	"1"	0
"389"	4	0	2	17	1	0	0	"1"	1
"390"	4	0	2	18	1	0	0	"2"	1
"391"	4	0	3	1	2	0	0	"1"	1
"392"	4	0	3	2	1	0	0	"1"	1
"393"	4	0	3	3	1	1	1	"1"	0
"394"	4	0	3	4	2	0	0	"1"	1
"395"	4	0	3	5	3	1	1	"2"	0
"396"	4	0	3	6	1	0	0	"1"	1
"397"	4	0	3	7	2	0	0	"1"	1
"398"	4	0	3	8	2	0	0	"2"	1
"399"	4	0	3	9	2	0	0	"1"	1
"400"	4	0	3	10	2	0	0	"2"	1
"401"	4	0	3	11	1	0	0	"2"	1
"402"	4	0	3	12	1	0	0	"2"	1
"403"	4	0	3	13	2	0	0	"2"	0
"404"	4	0	3	14	1	1	1	"2"	0
"405"	4	0	3	15	2	0	0	"2"	1
"406"	4	0	3	16	1	1	1	"1"	0
"407"	4	0	3	17	1	0	0	"1"	0
"408"	4	0	3	18	1	0	0	"2"	1
"409"	4	0	4	1	2	0	0	"1"	1
"410"	4	0	4	2	1	0	0	"1"	1
"411"	4	0	4	3	2	0	1	"1"	1
"412"	4	0	4	4	2	0	0	"1"	1
"413"	4	0	4	5	2	0	1	"2"	1
"414"	4	0	4	6	1	0	0	"1"	1
"415"	4	0	4	7	2	0	0	"1"	1
"416"	4	0	4	8	2	0	0	"2"	1
"417"	4	0	4	9	2	0	0	"1"	1
"418"	4	0	4	10	2	0	0	"2"	1
"419"	4	0	4	11	1	0	0	"2"	1
"420"	4	0	4	12	1	0	0	"2"	1
"421"	4	0	4	13	2	1	0	"2"	0
"422"	4	0	4	14	2	0	1	"2"	1
"423"	4	0	4	15	2	0	0	"2"	1
"424"	4	0	4	16	2	0	1	"1"	1
"425"	4	0	4	17	1	1	1	"1"	0
"426"	4	0	4	18	1	0	0	"2"	1
"427"	4	0	5	1	2	0	0	"1"	1
"428"	4	0	5	2	1	0	0	"1"	1
"429"	4	0	5	3	2	0	1	"1"	1
"430"	4	0	5	4	2	0	0	"1"	1
"431"	4	0	5	5	2	0	1	"2"	1
"432"	4	0	5	6	1	0	0	"1"	1
"433"	4	0	5	7	2	0	0	"1"	1
"434"	4	0	5	8	2	0	0	"2"	1
"435"	4	0	5	9	2	0	0	"1"	1
"436"	4	0	5	10	2	0	0	"2"	1
"437"	4	0	5	11	1	0	0	"2"	1
"438"	4	0	5	12	1	0	0	"2"	1
"439"	4	0	5	13	2	0	0	"2"	1
"440"	4	0	5	14	2	0	1	"2"	1
"441"	4	0	5	15	2	0	0	"2"	1
"442"	4	0	5	16	2	0	1	"1"	1
"443"	4	0	5	17	2	0	1	"1"	1
"444"	4	0	5	18	1	0	0	"2"	1
"445"	4	0	6	1	2	0	0	"1"	1
"446"	4	0	6	2	1	0	0	"1"	1
"447"	4	0	6	3	2	0	1	"1"	1
"448"	4	0	6	4	2	0	0	"1"	1
"449"	4	0	6	5	2	0	1	"2"	1
"450"	4	0	6	6	1	0	0	"1"	1
"451"	4	0	6	7	2	0	0	"1"	1
"452"	4	0	6	8	2	0	0	"2"	1
"453"	4	0	6	9	2	0	0	"1"	1
"454"	4	0	6	10	2	0	0	"2"	1
"455"	4	0	6	11	1	0	0	"2"	1
"456"	4	0	6	12	1	0	0	"2"	1
"457"	4	0	6	13	2	0	0	"2"	1
"458"	4	0	6	14	2	0	1	"2"	1
"459"	4	0	6	15	2	0	0	"2"	1
"460"	4	0	6	16	2	0	1	"1"	1
"461"	4	0	6	17	2	0	1	"1"	1
"462"	4	0	6	18	1	0	0	"2"	1
"463"	5	1	1	1	2	0	0	"1"	1
"464"	5	1	1	2	2	0	0	"2"	0
"465"	5	1	1	3	1	0	0	"1"	1
"466"	5	1	1	4	2	0	0	"1"	1
"467"	5	1	1	5	1	0	0	"2"	1
"468"	5	1	1	6	2	0	0	"2"	1
"469"	5	1	1	7	1	0	0	"1"	0
"470"	5	1	1	8	1	0	0	"2"	1
"471"	5	1	1	9	1	0	0	"2"	0
"472"	5	1	1	10	1	0	0	"1"	0
"473"	5	1	2	1	2	0	0	"1"	1
"474"	5	1	2	2	2	0	0	"2"	1
"475"	5	1	2	3	1	0	0	"1"	1
"476"	5	1	2	4	2	0	0	"1"	1
"477"	5	1	2	5	1	0	0	"2"	1
"478"	5	1	2	6	2	0	0	"2"	1
"479"	5	1	2	7	1	0	0	"1"	1
"480"	5	1	2	8	1	0	0	"2"	1
"481"	5	1	2	9	1	0	0	"2"	0
"482"	5	1	2	10	1	0	0	"1"	0
"483"	5	1	3	1	2	0	0	"1"	1
"484"	5	1	3	2	2	0	0	"2"	1
"485"	5	1	3	3	1	0	0	"1"	1
"486"	5	1	3	4	2	0	0	"1"	1
"487"	5	1	3	5	1	0	0	"2"	1
"488"	5	1	3	6	2	0	0	"2"	1
"489"	5	1	3	7	1	0	0	"1"	1
"490"	5	1	3	8	1	0	0	"2"	1
"491"	5	1	3	9	1	0	0	"2"	0
"492"	5	1	3	10	1	0	0	"1"	0
"493"	5	1	4	1	2	0	0	"1"	1
"494"	5	1	4	2	2	0	0	"2"	1
"495"	5	1	4	3	1	0	0	"1"	1
"496"	5	1	4	4	2	0	0	"1"	1
"497"	5	1	4	5	1	0	0	"2"	1
"498"	5	1	4	6	2	0	0	"2"	1
"499"	5	1	4	7	1	0	0	"1"	1
"500"	5	1	4	8	1	0	0	"2"	1
"501"	5	1	4	9	1	0	0	"2"	0
"502"	5	1	4	10	1	0	0	"1"	0
"503"	5	1	5	1	2	1	0	"1"	1
"504"	5	1	5	2	2	0	0	"2"	1
"505"	5	1	5	3	1	1	1	"1"	1
"506"	5	1	5	4	2	0	0	"1"	1
"507"	5	1	5	5	1	1	1	"2"	1
"508"	5	1	5	6	2	1	0	"2"	1
"509"	5	1	5	7	1	0	0	"1"	1
"510"	5	1	5	8	1	0	0	"2"	1
"511"	5	1	5	9	1	0	0	"2"	0
"512"	5	1	5	10	1	0	0	"1"	0
"513"	5	1	6	1	2	0	0	"1"	1
"514"	5	1	6	2	2	1	0	"2"	0
"515"	5	1	6	3	3	0	1	"1"	0
"516"	5	1	6	4	2	0	0	"1"	1
"517"	5	1	6	5	2	0	1	"2"	1
"518"	5	1	6	6	2	0	0	"2"	0
"519"	5	1	6	7	1	1	1	"1"	0
"520"	5	1	6	8	1	0	0	"2"	1
"521"	5	1	6	9	1	0	0	"2"	0
"522"	5	1	6	10	1	0	0	"1"	0
"523"	5	1	7	1	2	0	0	"1"	1
"524"	5	1	7	2	2	1	0	"2"	0
"525"	5	1	7	3	3	0	1	"1"	0
"526"	5	1	7	4	2	0	0	"1"	1
"527"	5	1	7	5	2	0	1	"2"	1
"528"	5	1	7	6	2	0	0	"2"	0
"529"	5	1	7	7	3	1	1	"1"	0
"530"	5	1	7	8	1	0	0	"2"	1
"531"	5	1	7	9	1	0	0	"2"	0
"532"	5	1	7	10	1	0	0	"1"	0
"533"	5	1	8	1	2	0	0	"1"	1
"534"	5	1	8	2	1	0	0	"2"	1
"535"	5	1	8	3	3	0	1	"1"	0
"536"	5	1	8	4	2	0	0	"1"	1
"537"	5	1	8	5	2	0	1	"2"	1
"538"	5	1	8	6	2	0	0	"2"	0
"539"	5	1	8	7	2	0	1	"1"	1
"540"	5	1	8	8	1	0	0	"2"	1
"541"	5	1	8	9	1	0	0	"2"	0
"542"	5	1	8	10	1	0	0	"1"	0
"543"	5	1	1	1	2	0	0	"2"	1
"544"	5	1	1	2	1	0	0	"2"	1
"545"	5	1	1	3	1	0	0	"1"	1
"546"	5	1	1	4	2	0	0	"2"	1
"547"	5	1	1	5	2	0	0	"1"	1
"548"	5	1	1	6	1	1	1	"1"	0
"549"	5	1	1	7	1	0	0	"1"	1
"550"	5	1	1	8	2	0	0	"1"	1
"551"	5	1	1	9	1	0	0	"2"	1
"552"	5	1	1	10	2	1	0	"2"	0
"553"	5	1	2	1	2	0	0	"2"	1
"554"	5	1	2	2	1	0	0	"2"	1
"555"	5	1	2	3	1	0	0	"1"	1
"556"	5	1	2	4	2	0	0	"2"	1
"557"	5	1	2	5	2	0	0	"1"	1
"558"	5	1	2	6	3	0	1	"1"	0
"559"	5	1	2	7	1	0	0	"1"	1
"560"	5	1	2	8	2	0	0	"1"	1
"561"	5	1	2	9	1	0	0	"2"	1
"562"	5	1	2	10	2	0	0	"2"	0
"563"	5	1	3	1	2	0	0	"2"	1
"564"	5	1	3	2	1	0	0	"2"	1
"565"	5	1	3	3	1	0	0	"1"	1
"566"	5	1	3	4	2	0	0	"2"	1
"567"	5	1	3	5	2	0	0	"1"	1
"568"	5	1	3	6	3	0	1	"1"	0
"569"	5	1	3	7	1	0	0	"1"	1
"570"	5	1	3	8	2	0	0	"1"	1
"571"	5	1	3	9	1	0	0	"2"	1
"572"	5	1	3	10	2	0	0	"2"	0
"573"	5	1	4	1	2	0	0	"2"	1
"574"	5	1	4	2	1	0	0	"2"	1
"575"	5	1	4	3	1	0	0	"1"	1
"576"	5	1	4	4	2	0	0	"2"	0
"577"	5	1	4	5	2	0	0	"1"	1
"578"	5	1	4	6	3	0	1	"1"	0
"579"	5	1	4	7	1	0	0	"1"	0
"580"	5	1	4	8	2	0	0	"1"	1
"581"	5	1	4	9	1	0	0	"2"	1
"582"	5	1	4	10	2	0	0	"2"	0
"583"	5	1	5	1	2	0	0	"2"	1
"584"	5	1	5	2	1	0	0	"2"	1
"585"	5	1	5	3	1	0	0	"1"	1
"586"	5	1	5	4	2	0	0	"2"	1
"587"	5	1	5	5	2	0	0	"1"	1
"588"	5	1	5	6	3	0	1	"1"	0
"589"	5	1	5	7	1	0	0	"1"	1
"590"	5	1	5	8	2	0	0	"1"	1
"591"	5	1	5	9	1	0	0	"2"	1
"592"	5	1	5	10	2	0	0	"2"	0
"593"	5	1	6	1	2	0	0	"2"	1
"594"	5	1	6	2	1	0	0	"2"	1
"595"	5	1	6	3	1	0	0	"1"	1
"596"	5	1	6	4	2	0	0	"2"	1
"597"	5	1	6	5	2	0	0	"1"	1
"598"	5	1	6	6	3	0	1	"1"	0
"599"	5	1	6	7	1	0	0	"1"	1
"600"	5	1	6	8	2	0	0	"1"	1
"601"	5	1	6	9	1	0	0	"2"	1
"602"	5	1	6	10	2	0	0	"2"	0
"603"	5	1	1	1	1	1	1	"2"	0
"604"	5	1	1	2	2	0	0	"1"	1
"605"	5	1	1	3	2	0	0	"2"	1
"606"	5	1	1	4	1	0	0	"1"	1
"607"	5	1	1	5	2	0	0	"2"	1
"608"	5	1	1	6	2	0	0	"1"	1
"609"	5	1	1	7	2	0	0	"1"	1
"610"	5	1	1	8	1	1	1	"1"	0
"611"	5	1	1	9	1	0	0	"2"	1
"612"	5	1	1	10	2	0	0	"2"	1
"613"	5	1	2	1	3	1	1	"2"	0
"614"	5	1	2	2	2	0	0	"1"	1
"615"	5	1	2	3	2	0	0	"2"	1
"616"	5	1	2	4	1	0	0	"1"	1
"617"	5	1	2	5	2	0	0	"2"	1
"618"	5	1	2	6	2	0	0	"1"	1
"619"	5	1	2	7	2	0	0	"1"	1
"620"	5	1	2	8	3	1	1	"1"	0
"621"	5	1	2	9	1	0	0	"2"	1
"622"	5	1	2	10	2	0	0	"2"	1
"623"	5	1	1	1	1	0	0	"1"	1
"624"	5	1	1	2	1	0	0	"1"	0
"625"	5	1	1	3	1	0	0	"2"	0
"626"	5	1	1	4	1	0	0	"2"	1
"627"	5	1	1	5	2	0	0	"1"	1
"628"	5	1	1	6	2	0	0	"2"	1
"629"	5	1	1	7	2	0	0	"2"	1
"630"	5	1	1	8	2	0	0	"2"	0
"631"	5	1	1	9	1	0	0	"1"	0
"632"	5	1	1	10	2	0	0	"1"	1
"633"	6	1	1	1	2	0	0	"2"	1
"634"	6	1	1	2	2	1	0	"2"	0
"635"	6	1	1	3	1	0	0	"2"	1
"636"	6	1	1	4	2	0	0	"1"	1
"637"	6	1	1	5	2	0	0	"2"	1
"638"	6	1	1	6	2	0	0	"1"	1
"639"	6	1	1	7	1	1	1	"1"	0
"640"	6	1	1	8	2	0	0	"1"	1
"641"	6	1	1	1	1	0	0	"2"	1
"642"	6	1	1	2	1	0	0	"1"	0
"643"	6	1	1	3	1	0	0	"1"	1
"644"	6	1	1	4	2	0	0	"1"	1
"645"	6	1	1	5	1	0	0	"2"	1
"646"	6	1	1	6	2	0	0	"1"	1
"647"	6	1	1	7	2	0	0	"2"	0
"648"	6	1	1	8	1	0	0	"2"	1
"649"	6	1	2	1	1	0	0	"2"	1
"650"	6	1	2	2	1	1	1	"1"	0
"651"	6	1	2	3	1	0	0	"1"	0
"652"	6	1	2	4	2	0	0	"1"	1
"653"	6	1	2	5	1	0	0	"2"	0
"654"	6	1	2	6	2	0	0	"1"	1
"655"	6	1	2	7	2	1	0	"2"	0
"656"	6	1	2	8	1	0	0	"2"	1
"657"	6	1	3	1	1	0	0	"2"	1
"658"	6	1	3	2	3	0	1	"1"	0
"659"	6	1	3	3	1	0	0	"1"	0
"660"	6	1	3	4	2	0	0	"1"	1
"661"	6	1	3	5	1	0	0	"2"	0
"662"	6	1	3	6	2	0	0	"1"	1
"663"	6	1	3	7	2	0	0	"2"	0
"664"	6	1	3	8	1	0	0	"2"	1
"665"	6	1	4	1	1	0	0	"2"	1
"666"	6	1	4	2	3	0	1	"1"	0
"667"	6	1	4	3	1	0	0	"1"	0
"668"	6	1	4	4	2	0	0	"1"	1
"669"	6	1	4	5	1	0	0	"2"	0
"670"	6	1	4	6	2	0	0	"1"	1
"671"	6	1	4	7	2	0	0	"2"	0
"672"	6	1	4	8	1	0	0	"2"	1
"673"	6	1	5	1	1	0	0	"2"	1
"674"	6	1	5	2	3	0	1	"1"	0
"675"	6	1	5	3	1	0	0	"1"	0
"676"	6	1	5	4	2	0	0	"1"	1
"677"	6	1	5	5	1	0	0	"2"	0
"678"	6	1	5	6	2	0	0	"1"	1
"679"	6	1	5	7	2	0	0	"2"	0
"680"	6	1	5	8	1	0	0	"2"	1
"681"	6	1	6	1	1	0	0	"2"	1
"682"	6	1	6	2	3	1	1	"1"	0
"683"	6	1	6	3	1	0	0	"1"	0
"684"	6	1	6	4	2	0	0	"1"	1
"685"	6	1	6	5	1	0	0	"2"	0
"686"	6	1	6	6	2	0	0	"1"	1
"687"	6	1	6	7	2	1	0	"2"	0
"688"	6	1	6	8	1	0	0	"2"	1
"689"	6	1	7	1	1	0	0	"2"	1
"690"	6	1	7	2	2	0	1	"1"	1
"691"	6	1	7	3	1	0	0	"1"	0
"692"	6	1	7	4	2	0	0	"1"	1
"693"	6	1	7	5	1	0	0	"2"	0
"694"	6	1	7	6	2	0	0	"1"	1
"695"	6	1	7	7	2	0	0	"2"	1
"696"	6	1	7	8	1	0	0	"2"	1
"697"	6	1	1	1	1	0	0	"2"	1
"698"	6	1	1	2	2	0	0	"1"	1
"699"	6	1	1	3	2	0	0	"1"	1
"700"	6	1	1	4	2	0	0	"2"	1
"701"	6	1	1	5	1	0	0	"2"	1
"702"	6	1	1	6	1	0	0	"2"	1
"703"	6	1	1	7	2	0	0	"1"	1
"704"	6	1	1	8	1	0	0	"1"	1
"705"	6	1	2	1	1	0	0	"2"	1
"706"	6	1	2	2	2	0	0	"1"	1
"707"	6	1	2	3	2	0	0	"1"	1
"708"	6	1	2	4	2	0	0	"2"	1
"709"	6	1	2	5	1	0	0	"2"	1
"710"	6	1	2	6	1	0	0	"2"	1
"711"	6	1	2	7	2	0	0	"1"	1
"712"	6	1	2	8	1	0	0	"1"	1
"713"	6	1	3	1	1	0	0	"2"	1
"714"	6	1	3	2	2	0	0	"1"	1
"715"	6	1	3	3	2	0	0	"1"	1
"716"	6	1	3	4	2	0	0	"2"	1
"717"	6	1	3	5	1	0	0	"2"	1
"718"	6	1	3	6	1	0	0	"2"	1
"719"	6	1	3	7	2	0	0	"1"	1
"720"	6	1	3	8	1	0	0	"1"	1
"721"	6	1	4	1	1	0	0	"2"	1
"722"	6	1	4	2	2	0	0	"1"	1
"723"	6	1	4	3	2	0	0	"1"	1
"724"	6	1	4	4	2	0	0	"2"	1
"725"	6	1	4	5	1	0	0	"2"	1
"726"	6	1	4	6	1	0	0	"2"	1
"727"	6	1	4	7	2	0	0	"1"	1
"728"	6	1	4	8	1	0	0	"1"	1
"729"	6	1	1	1	2	0	0	"1"	1
"730"	6	1	1	2	2	0	0	"2"	0
"731"	6	1	1	3	1	0	0	"1"	0
"732"	6	1	1	4	2	0	0	"2"	1
"733"	6	1	1	5	2	0	0	"2"	0
"734"	6	1	1	6	1	0	0	"1"	0
"735"	6	1	1	7	1	0	0	"2"	1
"736"	6	1	1	8	2	0	0	"1"	1
"737"	6	1	2	1	2	0	0	"1"	1
"738"	6	1	2	2	2	1	0	"2"	0
"739"	6	1	2	3	1	0	0	"1"	0
"740"	6	1	2	4	2	0	0	"2"	1
"741"	6	1	2	5	2	0	0	"2"	0
"742"	6	1	2	6	1	1	1	"1"	0
"743"	6	1	2	7	1	0	0	"2"	1
"744"	6	1	2	8	2	0	0	"1"	1
"745"	6	1	3	1	2	0	0	"1"	1
"746"	6	1	3	2	2	1	0	"2"	0
"747"	6	1	3	3	1	0	0	"1"	0
"748"	6	1	3	4	2	0	0	"2"	1
"749"	6	1	3	5	2	0	0	"2"	0
"750"	6	1	3	6	3	1	1	"1"	0
"751"	6	1	3	7	1	0	0	"2"	1
"752"	6	1	3	8	2	0	0	"1"	1
"753"	6	1	4	1	2	0	0	"1"	1
"754"	6	1	4	2	1	0	0	"2"	1
"755"	6	1	4	3	1	0	0	"1"	0
"756"	6	1	4	4	2	0	0	"2"	1
"757"	6	1	4	5	2	0	0	"2"	0
"758"	6	1	4	6	2	0	1	"1"	1
"759"	6	1	4	7	1	0	0	"2"	1
"760"	6	1	4	8	2	0	0	"1"	1
"761"	6	1	5	1	2	0	0	"1"	1
"762"	6	1	5	2	1	0	0	"2"	1
"763"	6	1	5	3	1	0	0	"1"	0
"764"	6	1	5	4	2	0	0	"2"	1
"765"	6	1	5	5	2	0	0	"2"	0
"766"	6	1	5	6	2	0	1	"1"	1
"767"	6	1	5	7	1	0	0	"2"	1
"768"	6	1	5	8	2	0	0	"1"	1
"769"	7	1	1	1	2	0	0	"2"	1
"770"	7	1	1	2	2	0	0	"2"	1
"771"	7	1	1	3	2	0	0	"2"	1
"772"	7	1	1	4	2	0	0	"1"	1
"773"	7	1	1	5	2	0	0	"1"	1
"774"	7	1	1	6	2	1	0	"1"	1
"775"	7	1	1	7	1	1	1	"2"	0
"776"	7	1	1	8	1	1	1	"1"	0
"777"	7	1	1	9	2	0	0	"1"	1
"778"	7	1	1	10	1	1	1	"2"	1
"779"	7	1	1	11	1	1	1	"2"	0
"780"	7	1	1	12	1	1	1	"1"	0
"781"	7	1	1	1	1	0	0	"1"	0
"782"	7	1	1	2	2	0	0	"2"	0
"783"	7	1	1	3	2	0	0	"1"	1
"784"	7	1	1	4	2	0	0	"2"	0
"785"	7	1	1	5	1	0	0	"2"	1
"786"	7	1	1	6	1	0	0	"1"	0
"787"	7	1	1	7	2	0	0	"1"	1
"788"	7	1	1	8	2	0	0	"2"	1
"789"	7	1	1	9	2	0	0	"2"	1
"790"	7	1	1	10	1	0	0	"2"	1
"791"	7	1	1	11	2	0	0	"1"	1
"792"	7	1	1	12	2	0	0	"1"	1
"793"	7	1	2	1	1	0	0	"1"	0
"794"	7	1	2	2	2	0	0	"2"	0
"795"	7	1	2	3	2	0	0	"1"	1
"796"	7	1	2	4	2	0	0	"2"	1
"797"	7	1	2	5	1	0	0	"2"	1
"798"	7	1	2	6	1	0	0	"1"	1
"799"	7	1	2	7	2	0	0	"1"	1
"800"	7	1	2	8	2	0	0	"2"	1
"801"	7	1	2	9	2	0	0	"2"	1
"802"	7	1	2	10	1	0	0	"2"	1
"803"	7	1	2	11	2	0	0	"1"	1
"804"	7	1	2	12	2	0	0	"1"	1
"805"	7	1	3	1	1	1	1	"1"	0
"806"	7	1	3	2	2	1	0	"2"	0
"807"	7	1	3	3	2	0	0	"1"	1
"808"	7	1	3	4	2	0	0	"2"	0
"809"	7	1	3	5	1	0	0	"2"	1
"810"	7	1	3	6	1	0	0	"1"	0
"811"	7	1	3	7	2	0	0	"1"	1
"812"	7	1	3	8	2	0	0	"2"	1
"813"	7	1	3	9	2	0	0	"2"	1
"814"	7	1	3	10	1	0	0	"2"	1
"815"	7	1	3	11	2	0	0	"1"	1
"816"	7	1	3	12	2	0	0	"1"	1
"817"	7	1	4	1	3	0	1	"1"	0
"818"	7	1	4	2	2	0	0	"2"	0
"819"	7	1	4	3	2	0	0	"1"	1
"820"	7	1	4	4	2	0	0	"2"	1
"821"	7	1	4	5	1	0	0	"2"	1
"822"	7	1	4	6	1	0	0	"1"	1
"823"	7	1	4	7	2	0	0	"1"	1
"824"	7	1	4	8	2	0	0	"2"	1
"825"	7	1	4	9	2	0	0	"2"	1
"826"	7	1	4	10	1	0	0	"2"	1
"827"	7	1	4	11	2	0	0	"1"	1
"828"	7	1	4	12	2	0	0	"1"	1
"829"	7	1	5	1	3	0	1	"1"	0
"830"	7	1	5	2	2	0	0	"2"	0
"831"	7	1	5	3	2	0	0	"1"	1
"832"	7	1	5	4	2	0	0	"2"	0
"833"	7	1	5	5	1	0	0	"2"	1
"834"	7	1	5	6	1	0	0	"1"	0
"835"	7	1	5	7	2	0	0	"1"	1
"836"	7	1	5	8	2	0	0	"2"	1
"837"	7	1	5	9	2	0	0	"2"	1
"838"	7	1	5	10	1	0	0	"2"	1
"839"	7	1	5	11	2	0	0	"1"	1
"840"	7	1	5	12	2	0	0	"1"	1
"841"	7	1	6	1	3	0	1	"1"	0
"842"	7	1	6	2	2	0	0	"2"	0
"843"	7	1	6	3	2	0	0	"1"	1
"844"	7	1	6	4	2	0	0	"2"	1
"845"	7	1	6	5	1	0	0	"2"	1
"846"	7	1	6	6	1	0	0	"1"	1
"847"	7	1	6	7	2	0	0	"1"	1
"848"	7	1	6	8	2	0	0	"2"	1
"849"	7	1	6	9	2	0	0	"2"	1
"850"	7	1	6	10	1	0	0	"2"	1
"851"	7	1	6	11	2	0	0	"1"	1
"852"	7	1	6	12	2	0	0	"1"	1
"853"	7	1	7	1	3	0	1	"1"	0
"854"	7	1	7	2	2	0	0	"2"	0
"855"	7	1	7	3	2	0	0	"1"	1
"856"	7	1	7	4	2	0	0	"2"	0
"857"	7	1	7	5	1	0	0	"2"	1
"858"	7	1	7	6	1	0	0	"1"	0
"859"	7	1	7	7	2	0	0	"1"	1
"860"	7	1	7	8	2	0	0	"2"	1
"861"	7	1	7	9	2	0	0	"2"	1
"862"	7	1	7	10	1	0	0	"2"	1
"863"	7	1	7	11	2	0	0	"1"	1
"864"	7	1	7	12	2	0	0	"1"	1
"865"	7	1	8	1	3	0	1	"1"	0
"866"	7	1	8	2	2	0	0	"2"	0
"867"	7	1	8	3	2	0	0	"1"	1
"868"	7	1	8	4	2	0	0	"2"	1
"869"	7	1	8	5	1	0	0	"2"	1
"870"	7	1	8	6	1	0	0	"1"	1
"871"	7	1	8	7	2	0	0	"1"	1
"872"	7	1	8	8	2	0	0	"2"	1
"873"	7	1	8	9	2	0	0	"2"	1
"874"	7	1	8	10	1	0	0	"2"	1
"875"	7	1	8	11	2	0	0	"1"	1
"876"	7	1	8	12	2	0	0	"1"	1
"877"	7	1	9	1	3	0	1	"1"	0
"878"	7	1	9	2	2	0	0	"2"	0
"879"	7	1	9	3	2	0	0	"1"	1
"880"	7	1	9	4	2	0	0	"2"	0
"881"	7	1	9	5	1	0	0	"2"	1
"882"	7	1	9	6	1	0	0	"1"	0
"883"	7	1	9	7	2	0	0	"1"	1
"884"	7	1	9	8	2	0	0	"2"	1
"885"	7	1	9	9	2	0	0	"2"	1
"886"	7	1	9	10	1	0	0	"2"	1
"887"	7	1	9	11	2	0	0	"1"	1
"888"	7	1	9	12	2	0	0	"1"	1
"889"	7	1	10	1	3	0	1	"1"	0
"890"	7	1	10	2	2	0	0	"2"	0
"891"	7	1	10	3	2	0	0	"1"	1
"892"	7	1	10	4	2	0	0	"2"	1
"893"	7	1	10	5	1	0	0	"2"	1
"894"	7	1	10	6	1	0	0	"1"	1
"895"	7	1	10	7	2	0	0	"1"	1
"896"	7	1	10	8	2	0	0	"2"	1
"897"	7	1	10	9	2	0	0	"2"	1
"898"	7	1	10	10	1	0	0	"2"	1
"899"	7	1	10	11	2	0	0	"1"	1
"900"	7	1	10	12	2	0	0	"1"	1
"901"	7	1	11	1	3	0	1	"1"	0
"902"	7	1	11	2	2	0	0	"2"	0
"903"	7	1	11	3	2	0	0	"1"	1
"904"	7	1	11	4	2	0	0	"2"	0
"905"	7	1	11	5	1	0	0	"2"	1
"906"	7	1	11	6	1	0	0	"1"	0
"907"	7	1	11	7	2	0	0	"1"	1
"908"	7	1	11	8	2	0	0	"2"	1
"909"	7	1	11	9	2	0	0	"2"	1
"910"	7	1	11	10	1	0	0	"2"	1
"911"	7	1	11	11	2	0	0	"1"	1
"912"	7	1	11	12	2	0	0	"1"	1
"913"	7	1	12	1	3	0	1	"1"	0
"914"	7	1	12	2	2	0	0	"2"	0
"915"	7	1	12	3	2	0	0	"1"	1
"916"	7	1	12	4	2	0	0	"2"	1
"917"	7	1	12	5	1	0	0	"2"	1
"918"	7	1	12	6	1	0	0	"1"	1
"919"	7	1	12	7	2	0	0	"1"	1
"920"	7	1	12	8	2	0	0	"2"	1
"921"	7	1	12	9	2	0	0	"2"	1
"922"	7	1	12	10	1	0	0	"2"	1
"923"	7	1	12	11	2	0	0	"1"	1
"924"	7	1	12	12	2	0	0	"1"	1
"925"	7	1	1	1	2	0	0	"1"	1
"926"	7	1	1	2	2	0	0	"1"	1
"927"	7	1	1	3	1	0	0	"2"	1
"928"	7	1	1	4	1	1	1	"1"	0
"929"	7	1	1	5	1	0	0	"2"	1
"930"	7	1	1	6	1	0	0	"1"	1
"931"	7	1	1	7	2	0	0	"2"	1
"932"	7	1	1	8	2	0	0	"2"	1
"933"	7	1	1	9	1	0	0	"1"	1
"934"	7	1	1	10	1	1	1	"2"	0
"935"	7	1	1	11	1	0	0	"1"	1
"936"	7	1	1	12	1	0	0	"2"	1
"937"	7	1	1	1	1	0	0	"1"	0
"938"	7	1	1	2	2	0	0	"2"	1
"939"	7	1	1	3	1	1	1	"1"	0
"940"	7	1	1	4	1	1	1	"1"	0
"941"	7	1	1	5	2	0	0	"1"	1
"942"	7	1	1	6	2	0	0	"1"	1
"943"	7	1	1	7	2	1	0	"2"	0
"944"	7	1	1	8	1	0	0	"2"	0
"945"	7	1	1	9	2	0	0	"2"	1
"946"	7	1	1	10	2	1	0	"2"	0
"947"	7	1	1	11	2	0	0	"2"	1
"948"	7	1	1	12	1	0	0	"1"	1
"949"	7	1	2	1	1	1	1	"1"	0
"950"	7	1	2	2	2	0	0	"2"	1
"951"	7	1	2	3	3	1	1	"1"	0
"952"	7	1	2	4	3	1	1	"1"	0
"953"	7	1	2	5	2	0	0	"1"	1
"954"	7	1	2	6	2	0	0	"1"	1
"955"	7	1	2	7	1	1	1	"2"	0
"956"	7	1	2	8	1	1	1	"2"	0
"957"	7	1	2	9	2	0	0	"2"	1
"958"	7	1	2	10	1	1	1	"2"	0
"959"	7	1	2	11	2	0	0	"2"	1
"960"	7	1	2	12	1	0	0	"1"	1
"961"	7	1	3	1	3	1	1	"1"	0
"962"	7	1	3	2	2	0	0	"2"	1
"963"	7	1	3	3	2	0	1	"1"	1
"964"	7	1	3	4	3	1	1	"1"	0
"965"	7	1	3	5	2	0	0	"1"	1
"966"	7	1	3	6	2	0	0	"1"	1
"967"	7	1	3	7	2	0	1	"2"	1
"968"	7	1	3	8	3	1	1	"2"	0
"969"	7	1	3	9	2	0	0	"2"	1
"970"	7	1	3	10	2	1	1	"2"	0
"971"	7	1	3	11	2	0	0	"2"	1
"972"	7	1	3	12	1	0	0	"1"	1
"973"	7	1	4	1	2	0	1	"1"	1
"974"	7	1	4	2	2	0	0	"2"	1
"975"	7	1	4	3	2	0	1	"1"	1
"976"	7	1	4	4	2	0	1	"1"	1
"977"	7	1	4	5	2	0	0	"1"	1
"978"	7	1	4	6	2	0	0	"1"	1
"979"	7	1	4	7	2	0	1	"2"	1
"980"	7	1	4	8	2	0	1	"2"	1
"981"	7	1	4	9	2	0	0	"2"	1
"982"	7	1	4	10	3	0	1	"2"	1
"983"	7	1	4	11	2	0	0	"2"	1
"984"	7	1	4	12	1	0	0	"1"	1
"985"	7	1	5	1	2	0	1	"1"	1
"986"	7	1	5	2	2	0	0	"2"	1
"987"	7	1	5	3	2	0	1	"1"	1
"988"	7	1	5	4	2	0	1	"1"	1
"989"	7	1	5	5	2	0	0	"1"	1
"990"	7	1	5	6	2	0	0	"1"	1
"991"	7	1	5	7	2	0	1	"2"	1
"992"	7	1	5	8	2	0	1	"2"	1
"993"	7	1	5	9	2	0	0	"2"	0
"994"	7	1	5	10	3	0	1	"2"	1
"995"	7	1	5	11	2	0	0	"2"	1
"996"	7	1	5	12	1	0	0	"1"	0
"997"	7	1	6	1	2	0	1	"1"	1
"998"	7	1	6	2	2	0	0	"2"	1
"999"	7	1	6	3	2	0	1	"1"	1
"1000"	7	1	6	4	2	0	1	"1"	1
"1001"	7	1	6	5	2	0	0	"1"	1
"1002"	7	1	6	6	2	0	0	"1"	1
"1003"	7	1	6	7	2	0	1	"2"	1
"1004"	7	1	6	8	2	0	1	"2"	1
"1005"	7	1	6	9	2	0	0	"2"	0
"1006"	7	1	6	10	3	0	1	"2"	1
"1007"	7	1	6	11	2	0	0	"2"	1
"1008"	7	1	6	12	1	0	0	"1"	0
"1009"	8	1	1	1	1	0	0	"1"	1
"1010"	8	1	1	2	1	0	0	"1"	1
"1011"	8	1	1	3	2	0	0	"2"	1
"1012"	8	1	1	4	1	0	0	"2"	1
"1013"	8	1	1	5	2	0	0	"2"	1
"1014"	8	1	1	6	2	0	0	"2"	1
"1015"	8	1	1	7	2	0	0	"1"	1
"1016"	8	1	1	8	2	0	0	"1"	1
"1017"	8	1	1	9	2	0	0	"2"	1
"1018"	8	1	1	10	1	0	0	"1"	1
"1019"	8	1	1	11	2	0	0	"2"	1
"1020"	8	1	1	12	1	0	0	"1"	1
"1021"	8	1	2	1	1	0	0	"1"	1
"1022"	8	1	2	2	1	0	0	"1"	1
"1023"	8	1	2	3	2	0	0	"2"	1
"1024"	8	1	2	4	1	0	0	"2"	1
"1025"	8	1	2	5	2	0	0	"2"	1
"1026"	8	1	2	6	2	0	0	"2"	1
"1027"	8	1	2	7	2	0	0	"1"	1
"1028"	8	1	2	8	2	0	0	"1"	1
"1029"	8	1	2	9	2	0	0	"2"	1
"1030"	8	1	2	10	1	0	0	"1"	1
"1031"	8	1	2	11	2	0	0	"2"	1
"1032"	8	1	2	12	1	0	0	"1"	1
"1033"	8	1	3	1	1	0	0	"1"	1
"1034"	8	1	3	2	1	0	0	"1"	1
"1035"	8	1	3	3	2	0	0	"2"	1
"1036"	8	1	3	4	1	0	0	"2"	1
"1037"	8	1	3	5	2	0	0	"2"	0
"1038"	8	1	3	6	2	0	0	"2"	1
"1039"	8	1	3	7	2	0	0	"1"	1
"1040"	8	1	3	8	2	0	0	"1"	1
"1041"	8	1	3	9	2	1	0	"2"	0
"1042"	8	1	3	10	1	0	0	"1"	0
"1043"	8	1	3	11	2	0	0	"2"	1
"1044"	8	1	3	12	1	1	1	"1"	0
"1045"	8	1	4	1	1	0	0	"1"	1
"1046"	8	1	4	2	1	0	0	"1"	1
"1047"	8	1	4	3	2	0	0	"2"	1
"1048"	8	1	4	4	1	0	0	"2"	1
"1049"	8	1	4	5	2	0	0	"2"	1
"1050"	8	1	4	6	2	0	0	"2"	1
"1051"	8	1	4	7	2	0	0	"1"	1
"1052"	8	1	4	8	2	0	0	"1"	1
"1053"	8	1	4	9	1	1	1	"2"	0
"1054"	8	1	4	10	1	0	0	"1"	1
"1055"	8	1	4	11	2	0	0	"2"	1
"1056"	8	1	4	12	3	1	1	"1"	0
"1057"	8	1	5	1	1	0	0	"1"	1
"1058"	8	1	5	2	1	0	0	"1"	1
"1059"	8	1	5	3	2	0	0	"2"	1
"1060"	8	1	5	4	1	0	0	"2"	1
"1061"	8	1	5	5	2	0	0	"2"	0
"1062"	8	1	5	6	2	0	0	"2"	1
"1063"	8	1	5	7	2	0	0	"1"	1
"1064"	8	1	5	8	2	0	0	"1"	1
"1065"	8	1	5	9	3	0	1	"2"	1
"1066"	8	1	5	10	1	0	0	"1"	0
"1067"	8	1	5	11	2	0	0	"2"	1
"1068"	8	1	5	12	2	0	1	"1"	1
"1069"	8	1	1	1	1	0	0	"1"	1
"1070"	8	1	1	2	2	1	0	"2"	0
"1071"	8	1	1	3	1	0	0	"2"	1
"1072"	8	1	1	4	1	0	0	"1"	1
"1073"	8	1	1	5	2	0	0	"1"	1
"1074"	8	1	1	6	1	0	0	"2"	1
"1075"	8	1	1	7	1	0	0	"1"	1
"1076"	8	1	1	8	1	0	0	"2"	1
"1077"	8	1	1	9	1	0	0	"2"	1
"1078"	8	1	1	10	1	1	1	"1"	0
"1079"	8	1	1	11	2	0	0	"1"	1
"1080"	8	1	1	12	1	0	0	"2"	1
"1081"	8	1	2	1	1	0	0	"1"	1
"1082"	8	1	2	2	1	1	1	"2"	0
"1083"	8	1	2	3	1	0	0	"2"	1
"1084"	8	1	2	4	1	0	0	"1"	1
"1085"	8	1	2	5	2	0	0	"1"	1
"1086"	8	1	2	6	1	0	0	"2"	1
"1087"	8	1	2	7	1	0	0	"1"	1
"1088"	8	1	2	8	1	0	0	"2"	1
"1089"	8	1	2	9	1	0	0	"2"	1
"1090"	8	1	2	10	3	1	1	"1"	0
"1091"	8	1	2	11	2	0	0	"1"	1
"1092"	8	1	2	12	1	0	0	"2"	1
"1093"	8	1	3	1	1	0	0	"1"	1
"1094"	8	1	3	2	2	1	1	"2"	0
"1095"	8	1	3	3	1	0	0	"2"	1
"1096"	8	1	3	4	1	0	0	"1"	1
"1097"	8	1	3	5	2	0	0	"1"	1
"1098"	8	1	3	6	1	0	0	"2"	1
"1099"	8	1	3	7	1	0	0	"1"	1
"1100"	8	1	3	8	1	0	0	"2"	1
"1101"	8	1	3	9	1	0	0	"2"	1
"1102"	8	1	3	10	3	1	1	"1"	0
"1103"	8	1	3	11	2	0	0	"1"	1
"1104"	8	1	3	12	1	0	0	"2"	1
"1105"	8	1	4	1	1	0	0	"1"	1
"1106"	8	1	4	2	3	1	1	"2"	0
"1107"	8	1	4	3	1	0	0	"2"	1
"1108"	8	1	4	4	1	0	0	"1"	1
"1109"	8	1	4	5	2	0	0	"1"	1
"1110"	8	1	4	6	1	0	0	"2"	1
"1111"	8	1	4	7	1	0	0	"1"	1
"1112"	8	1	4	8	1	0	0	"2"	1
"1113"	8	1	4	9	1	0	0	"2"	1
"1114"	8	1	4	10	3	1	1	"1"	0
"1115"	8	1	4	11	2	0	0	"1"	1
"1116"	8	1	4	12	1	0	0	"2"	1
"1117"	8	1	5	1	1	0	0	"1"	1
"1118"	8	1	5	2	2	0	1	"2"	1
"1119"	8	1	5	3	1	0	0	"2"	1
"1120"	8	1	5	4	1	0	0	"1"	1
"1121"	8	1	5	5	2	0	0	"1"	1
"1122"	8	1	5	6	1	0	0	"2"	1
"1123"	8	1	5	7	1	0	0	"1"	1
"1124"	8	1	5	8	1	0	0	"2"	1
"1125"	8	1	5	9	1	0	0	"2"	1
"1126"	8	1	5	10	2	0	1	"1"	1
"1127"	8	1	5	11	2	0	0	"1"	1
"1128"	8	1	5	12	1	0	0	"2"	1
"1129"	8	1	6	1	1	0	0	"1"	0
"1130"	8	1	6	2	2	0	1	"2"	1
"1131"	8	1	6	3	1	0	0	"2"	1
"1132"	8	1	6	4	1	0	0	"1"	1
"1133"	8	1	6	5	2	0	0	"1"	1
"1134"	8	1	6	6	1	0	0	"2"	1
"1135"	8	1	6	7	1	0	0	"1"	1
"1136"	8	1	6	8	1	0	0	"2"	1
"1137"	8	1	6	9	1	0	0	"2"	1
"1138"	8	1	6	10	2	0	1	"1"	1
"1139"	8	1	6	11	2	0	0	"1"	1
"1140"	8	1	6	12	1	0	0	"2"	0
"1141"	8	1	7	1	1	0	0	"1"	1
"1142"	8	1	7	2	2	0	1	"2"	1
"1143"	8	1	7	3	1	0	0	"2"	1
"1144"	8	1	7	4	1	0	0	"1"	1
"1145"	8	1	7	5	2	0	0	"1"	1
"1146"	8	1	7	6	1	1	1	"2"	0
"1147"	8	1	7	7	1	1	1	"1"	0
"1148"	8	1	7	8	1	0	0	"2"	1
"1149"	8	1	7	9	1	0	0	"2"	1
"1150"	8	1	7	10	2	0	1	"1"	1
"1151"	8	1	7	11	2	0	0	"1"	1
"1152"	8	1	7	12	1	0	0	"2"	1
"1153"	8	1	8	1	1	0	0	"1"	0
"1154"	8	1	8	2	2	0	1	"2"	1
"1155"	8	1	8	3	1	0	0	"2"	1
"1156"	8	1	8	4	1	0	0	"1"	1
"1157"	8	1	8	5	2	0	0	"1"	1
"1158"	8	1	8	6	3	1	1	"2"	0
"1159"	8	1	8	7	3	1	1	"1"	0
"1160"	8	1	8	8	1	0	0	"2"	1
"1161"	8	1	8	9	1	0	0	"2"	1
"1162"	8	1	8	10	2	0	1	"1"	1
"1163"	8	1	8	11	2	0	0	"1"	1
"1164"	8	1	8	12	1	0	0	"2"	0
"1165"	8	1	9	1	1	0	0	"1"	0
"1166"	8	1	9	2	2	0	1	"2"	1
"1167"	8	1	9	3	1	0	0	"2"	1
"1168"	8	1	9	4	1	0	0	"1"	1
"1169"	8	1	9	5	2	0	0	"1"	1
"1170"	8	1	9	6	3	1	1	"2"	0
"1171"	8	1	9	7	3	1	1	"1"	0
"1172"	8	1	9	8	1	0	0	"2"	1
"1173"	8	1	9	9	1	0	0	"2"	1
"1174"	8	1	9	10	2	0	1	"1"	1
"1175"	8	1	9	11	2	0	0	"1"	1
"1176"	8	1	9	12	1	0	0	"2"	0
"1177"	8	1	10	1	1	1	1	"1"	0
"1178"	8	1	10	2	2	0	1	"2"	1
"1179"	8	1	10	3	1	0	0	"2"	1
"1180"	8	1	10	4	1	0	0	"1"	1
"1181"	8	1	10	5	2	0	0	"1"	1
"1182"	8	1	10	6	3	0	1	"2"	1
"1183"	8	1	10	7	2	0	1	"1"	1
"1184"	8	1	10	8	1	0	0	"2"	1
"1185"	8	1	10	9	1	0	0	"2"	1
"1186"	8	1	10	10	2	0	1	"1"	1
"1187"	8	1	10	11	2	0	0	"1"	1
"1188"	8	1	10	12	1	1	1	"2"	0
"1189"	8	1	11	1	2	0	1	"1"	1
"1190"	8	1	11	2	2	0	1	"2"	1
"1191"	8	1	11	3	1	0	0	"2"	1
"1192"	8	1	11	4	1	0	0	"1"	1
"1193"	8	1	11	5	2	0	0	"1"	1
"1194"	8	1	11	6	3	0	1	"2"	1
"1195"	8	1	11	7	2	0	1	"1"	1
"1196"	8	1	11	8	1	0	0	"2"	1
"1197"	8	1	11	9	1	0	0	"2"	1
"1198"	8	1	11	10	2	0	1	"1"	1
"1199"	8	1	11	11	2	0	0	"1"	1
"1200"	8	1	11	12	2	0	1	"2"	1
"1201"	8	1	1	1	1	0	0	"1"	1
"1202"	8	1	1	2	1	1	1	"2"	0
"1203"	8	1	1	3	1	0	0	"1"	1
"1204"	8	1	1	4	1	0	0	"1"	1
"1205"	8	1	1	5	1	0	0	"2"	1
"1206"	8	1	1	6	1	1	1	"1"	0
"1207"	8	1	1	7	2	0	0	"1"	1
"1208"	8	1	1	8	2	0	0	"2"	1
"1209"	8	1	1	9	2	1	0	"2"	0
"1210"	8	1	1	10	2	0	0	"2"	1
"1211"	8	1	1	11	1	0	0	"2"	1
"1212"	8	1	1	12	1	1	1	"1"	0
"1213"	8	1	2	1	1	0	0	"1"	1
"1214"	8	1	2	2	3	0	1	"2"	1
"1215"	8	1	2	3	1	0	0	"1"	1
"1216"	8	1	2	4	1	0	0	"1"	1
"1217"	8	1	2	5	1	0	0	"2"	1
"1218"	8	1	2	6	2	0	1	"1"	1
"1219"	8	1	2	7	2	0	0	"1"	1
"1220"	8	1	2	8	2	0	0	"2"	1
"1221"	8	1	2	9	1	1	1	"2"	0
"1222"	8	1	2	10	2	0	0	"2"	1
"1223"	8	1	2	11	1	0	0	"2"	1
"1224"	8	1	2	12	3	1	1	"1"	0
"1225"	8	1	3	1	1	0	0	"1"	1
"1226"	8	1	3	2	3	0	1	"2"	1
"1227"	8	1	3	3	1	0	0	"1"	1
"1228"	8	1	3	4	1	0	0	"1"	1
"1229"	8	1	3	5	1	0	0	"2"	1
"1230"	8	1	3	6	2	0	1	"1"	1
"1231"	8	1	3	7	2	0	0	"1"	1
"1232"	8	1	3	8	2	0	0	"2"	1
"1233"	8	1	3	9	2	1	1	"2"	0
"1234"	8	1	3	10	2	0	0	"2"	1
"1235"	8	1	3	11	1	0	0	"2"	1
"1236"	8	1	3	12	3	1	1	"1"	0
"1237"	8	1	4	1	1	0	0	"1"	1
"1238"	8	1	4	2	3	0	1	"2"	1
"1239"	8	1	4	3	1	0	0	"1"	1
"1240"	8	1	4	4	1	0	0	"1"	1
"1241"	8	1	4	5	1	0	0	"2"	1
"1242"	8	1	4	6	2	0	1	"1"	1
"1243"	8	1	4	7	2	0	0	"1"	1
"1244"	8	1	4	8	2	0	0	"2"	1
"1245"	8	1	4	9	3	1	1	"2"	0
"1246"	8	1	4	10	2	0	0	"2"	1
"1247"	8	1	4	11	1	0	0	"2"	1
"1248"	8	1	4	12	3	1	1	"1"	0
"1249"	8	1	5	1	1	0	0	"1"	1
"1250"	8	1	5	2	3	0	1	"2"	1
"1251"	8	1	5	3	1	0	0	"1"	1
"1252"	8	1	5	4	1	0	0	"1"	1
"1253"	8	1	5	5	1	0	0	"2"	1
"1254"	8	1	5	6	2	0	1	"1"	1
"1255"	8	1	5	7	2	0	0	"1"	1
"1256"	8	1	5	8	2	0	0	"2"	1
"1257"	8	1	5	9	3	0	1	"2"	1
"1258"	8	1	5	10	2	0	0	"2"	1
"1259"	8	1	5	11	1	0	0	"2"	1
"1260"	8	1	5	12	2	0	1	"1"	1
"1261"	8	1	6	1	1	0	0	"1"	1
"1262"	8	1	6	2	3	0	1	"2"	1
"1263"	8	1	6	3	1	0	0	"1"	1
"1264"	8	1	6	4	1	0	0	"1"	1
"1265"	8	1	6	5	1	0	0	"2"	1
"1266"	8	1	6	6	2	0	1	"1"	1
"1267"	8	1	6	7	2	0	0	"1"	1
"1268"	8	1	6	8	2	0	0	"2"	1
"1269"	8	1	6	9	3	0	1	"2"	1
"1270"	8	1	6	10	2	0	0	"2"	1
"1271"	8	1	6	11	1	0	0	"2"	1
"1272"	8	1	6	12	2	0	1	"1"	1
