""	"X.1"	"X"	"session"	"context_free"	"Period"	"Subject"	"president"	"replace"	"everReplaced"	"governor"	"everReplacedg"	"everPromotedg"	"everReplacedgp"	"swap"	"promoted"	"PlayerNum"	"decision"	"decisiong"	"replacement"	"cntrlzd"	"replaceg"
"1"	1	1	1	1	1	1	1	1	1	1	1	1	0	1	1	2	0	1	5	0	1
"2"	2	2	1	1	1	2	1	1	1	1	0	0	0	0	0	1	0	1	0	0	0
"3"	3	3	1	1	1	3	2	0	0	1	1	0	0	0	0	1	1	0	0	0	1
"4"	4	4	1	1	1	4	1	1	1	1	0	0	0	0	0	1	0	1	0	0	0
"5"	5	5	1	1	1	5	2	1	0	1	0	0	0	0	0	2	0	1	3	0	0
"6"	6	6	1	1	1	6	2	0	0	1	1	0	0	0	0	2	1	0	2	0	1
"7"	7	7	1	1	1	7	2	1	0	1	0	0	0	0	0	2	0	1	3	0	0
"8"	8	8	1	1	1	8	1	0	0	1	1	0	0	0	0	3	1	0	0	0	1
"9"	9	9	1	1	1	9	1	1	1	1	1	1	0	1	1	3	0	1	0	0	1
"10"	10	10	1	1	1	10	1	1	1	1	0	0	0	0	0	3	0	1	0	0	0
"11"	11	11	1	1	1	11	2	0	0	2	0	0	0	1	0	1	0	1	0	0	0
"12"	12	12	1	1	1	12	1	1	1	1	0	0	0	0	0	3	0	1	0	0	0
"13"	13	13	1	1	2	1	1	0	1	2	1	1	0	0	0	2	1	1	4	0	0
"14"	14	14	1	1	2	2	3	1	1	1	0	0	0	0	0	1	0	1	0	0	0
"15"	15	15	1	1	2	3	2	0	0	3	1	0	0	0	0	1	1	0	0	0	1
"16"	16	16	1	1	2	4	3	0	1	1	0	0	0	0	0	1	0	0	0	0	0
"17"	17	17	1	1	2	5	2	0	0	1	0	0	0	0	0	2	0	0	4	0	0
"18"	18	18	1	1	2	6	2	0	0	3	1	0	0	0	0	2	1	0	2	0	1
"19"	19	19	1	1	2	7	1	1	1	1	0	0	0	0	0	2	0	1	3	0	0
"20"	20	20	1	1	2	8	1	0	0	3	1	0	0	0	0	3	1	0	0	0	1
"21"	21	21	1	1	2	9	1	0	1	3	1	1	0	0	0	3	1	1	0	0	0
"22"	22	22	1	1	2	10	2	1	1	1	0	0	0	0	0	3	0	1	0	0	0
"23"	23	23	1	1	2	11	2	0	0	1	0	0	0	0	0	1	0	1	0	0	0
"24"	24	24	1	1	2	12	2	0	1	1	0	0	0	0	0	3	0	0	0	0	0
"25"	25	25	1	1	3	1	1	0	1	2	1	1	0	0	0	2	1	1	4	0	0
"26"	26	26	1	1	3	2	3	1	1	1	0	0	0	0	0	1	0	1	0	0	0
"27"	27	27	1	1	3	3	2	0	0	3	1	0	0	0	0	1	1	0	0	0	1
"28"	28	28	1	1	3	4	3	1	1	1	0	0	0	0	0	1	0	1	0	0	0
"29"	29	29	1	1	3	5	2	1	0	1	0	0	0	0	0	2	0	1	3	0	0
"30"	30	30	1	1	3	6	2	0	0	2	1	0	0	0	0	2	1	0	2	0	1
"31"	31	31	1	1	3	7	2	1	1	1	0	0	0	0	0	2	0	1	3	0	0
"32"	32	32	1	1	3	8	1	0	0	2	1	0	0	0	0	3	1	0	0	0	1
"33"	33	33	1	1	3	9	1	0	1	3	1	1	0	0	0	3	1	1	0	0	0
"34"	34	34	1	1	3	10	3	1	1	1	0	0	0	0	0	3	0	1	0	0	0
"35"	35	35	1	1	3	11	2	0	0	1	0	0	0	0	0	1	0	1	0	0	0
"36"	36	36	1	1	3	12	2	1	1	1	0	0	0	0	0	3	0	1	0	0	0
"37"	37	37	1	1	4	1	1	0	1	2	1	1	0	0	0	2	1	1	4	0	0
"38"	38	38	1	1	4	2	3	1	1	1	1	1	0	1	1	1	0	1	0	0	1
"39"	39	39	1	1	4	3	2	1	0	3	1	0	0	0	0	1	1	0	0	0	1
"40"	40	40	1	1	4	4	2	0	1	1	0	0	0	0	0	1	1	1	0	0	0
"41"	41	41	1	1	4	5	2	0	0	1	0	0	0	0	0	2	1	1	4	0	0
"42"	42	42	1	1	4	6	2	1	0	2	1	0	0	0	0	2	1	0	1	0	1
"43"	43	43	1	1	4	7	2	1	1	1	1	1	0	1	1	2	0	1	5	0	1
"44"	44	44	1	1	4	8	1	1	1	3	1	0	0	0	0	3	1	0	0	0	1
"45"	45	45	1	1	4	9	1	0	1	3	1	1	0	0	0	3	1	1	0	0	0
"46"	46	46	1	1	4	10	3	1	1	1	1	1	0	1	1	3	0	1	0	0	1
"47"	47	47	1	1	4	11	2	0	0	1	0	0	0	0	0	1	0	1	0	0	0
"48"	48	48	1	1	4	12	3	0	1	1	0	0	0	0	0	3	1	1	0	0	0
"49"	49	49	1	1	5	1	1	0	1	2	1	1	0	0	0	2	1	1	4	0	0
"50"	50	50	1	1	5	2	1	0	1	3	1	1	0	0	0	1	1	0	0	0	1
"51"	51	51	1	1	5	3	2	0	0	2	1	0	0	0	0	1	1	1	0	0	0
"52"	52	52	1	1	5	4	2	0	1	1	0	0	0	0	0	1	1	1	0	0	0
"53"	53	53	1	1	5	5	2	0	0	1	0	0	0	0	0	2	1	1	4	0	0
"54"	54	54	1	1	5	6	2	0	0	2	1	0	0	0	0	2	1	1	4	0	0
"55"	55	55	1	1	5	7	1	0	1	2	1	1	0	0	0	2	1	0	2	0	1
"56"	56	56	1	1	5	8	1	0	1	3	1	0	0	0	0	3	1	1	0	0	0
"57"	57	57	1	1	5	9	1	0	1	3	1	1	0	0	0	3	1	1	0	0	0
"58"	58	58	1	1	5	10	1	0	1	3	1	1	0	0	0	3	1	0	0	0	1
"59"	59	59	1	1	5	11	2	0	0	1	0	0	0	0	0	1	0	1	0	0	0
"60"	60	60	1	1	5	12	3	0	1	1	0	0	0	0	0	3	1	1	0	0	0
"61"	61	61	1	1	6	1	1	0	1	2	1	1	0	0	0	2	1	1	4	0	0
"62"	62	62	1	1	6	2	1	1	1	3	1	1	1	0	0	1	0	0	0	0	1
"63"	63	63	1	1	6	3	2	0	0	2	1	0	0	0	0	1	1	1	0	0	0
"64"	64	64	1	1	6	4	2	0	1	1	0	0	0	0	0	1	1	0	0	0	0
"65"	65	65	1	1	6	5	2	0	0	1	0	0	0	0	0	2	1	0	4	0	0
"66"	66	66	1	1	6	6	2	0	0	2	1	0	0	0	0	2	1	1	4	0	0
"67"	67	67	1	1	6	7	1	1	1	3	1	1	1	0	0	2	0	0	1	0	1
"68"	68	68	1	1	6	8	1	0	1	3	1	0	0	0	0	3	1	1	0	0	0
"69"	69	69	1	1	6	9	1	0	1	3	1	1	0	0	0	3	1	1	0	0	0
"70"	70	70	1	1	6	10	1	1	1	2	1	1	1	0	0	3	0	0	0	0	1
"71"	71	71	1	1	6	11	2	0	0	1	0	0	0	0	0	1	0	1	0	0	0
"72"	72	72	1	1	6	12	3	0	1	1	0	0	0	0	0	3	1	0	0	0	0
"73"	73	73	1	1	7	1	1	0	1	2	1	1	0	0	0	2	1	1	4	0	0
"74"	74	74	1	1	7	2	3	1	1	2	1	1	1	1	0	1	0	1	0	0	1
"75"	75	75	1	1	7	3	2	0	0	2	1	0	0	0	0	1	1	1	0	0	0
"76"	76	76	1	1	7	4	2	0	1	1	0	0	0	0	0	1	1	1	0	0	0
"77"	77	77	1	1	7	5	2	0	0	1	0	0	0	0	0	2	1	1	4	0	0
"78"	78	78	1	1	7	6	2	0	0	2	1	0	0	0	0	2	1	1	4	0	0
"79"	79	79	1	1	7	7	2	1	1	2	1	1	1	1	0	2	0	1	5	0	1
"80"	80	80	1	1	7	8	1	0	1	3	1	0	0	0	0	3	1	1	0	0	0
"81"	81	81	1	1	7	9	1	0	1	3	1	1	0	0	0	3	1	1	0	0	0
"82"	82	82	1	1	7	10	3	1	1	3	1	1	1	1	0	3	0	1	0	0	1
"83"	83	83	1	1	7	11	2	0	0	1	0	0	0	0	0	1	0	1	0	0	0
"84"	84	84	1	1	7	12	3	0	1	1	0	0	0	0	0	3	1	1	0	0	0
"85"	85	85	1	1	8	1	1	1	1	2	1	1	1	1	1	2	0	1	5	0	0
"86"	86	86	1	1	8	2	2	0	1	3	1	1	1	0	0	1	1	0	0	0	1
"87"	87	87	1	1	8	3	2	0	0	2	1	0	0	0	0	1	1	1	0	0	0
"88"	88	88	1	1	8	4	2	0	1	1	0	0	0	0	0	1	1	1	0	0	0
"89"	89	89	1	1	8	5	2	0	0	1	0	0	0	0	0	2	1	1	4	0	0
"90"	90	90	1	1	8	6	2	0	0	2	1	0	0	0	0	2	1	1	4	0	0
"91"	91	91	1	1	8	7	2	0	1	2	1	1	1	0	0	2	1	0	2	0	1
"92"	92	92	1	1	8	8	1	0	1	3	1	0	0	0	0	3	1	1	0	0	0
"93"	93	93	1	1	8	9	1	1	1	3	1	1	1	1	1	3	0	1	0	0	0
"94"	94	94	1	1	8	10	3	0	1	2	1	1	1	0	0	3	1	0	0	0	1
"95"	95	95	1	1	8	11	2	0	0	1	1	1	0	1	1	1	0	1	0	0	1
"96"	96	96	1	1	8	12	3	0	1	1	0	0	0	0	0	3	1	1	0	0	0
"97"	97	97	1	1	9	1	2	0	1	2	1	1	1	0	0	2	1	1	4	0	0
"98"	98	98	1	1	9	2	2	0	1	3	1	1	1	0	0	1	1	0	0	0	1
"99"	99	99	1	1	9	3	2	0	0	2	1	0	0	0	0	1	1	1	0	0	0
"100"	100	100	1	1	9	4	2	0	1	1	0	0	0	0	0	1	1	0	0	0	0
"101"	101	101	1	1	9	5	2	0	0	1	0	0	0	0	0	2	1	0	4	0	0
"102"	102	102	1	1	9	6	2	0	0	2	1	0	0	0	0	2	1	1	4	0	0
"103"	103	103	1	1	9	7	2	0	1	2	1	1	1	0	0	2	1	0	2	0	1
"104"	104	104	1	1	9	8	1	0	1	3	1	0	0	0	0	3	1	1	0	0	0
"105"	105	105	1	1	9	9	3	0	1	3	1	1	1	0	0	3	1	1	0	0	0
"106"	106	106	1	1	9	10	3	0	1	2	1	1	1	0	0	3	1	0	0	0	1
"107"	107	107	1	1	9	11	1	0	0	2	1	1	0	0	0	1	1	1	0	0	0
"108"	108	108	1	1	9	12	3	0	1	1	0	0	0	0	0	3	1	0	0	0	0
"109"	109	109	1	1	1	1	1	0	0	1	0	0	0	0	0	1	1	1	0	0	0
"110"	110	110	1	1	1	2	1	1	1	1	0	0	0	0	0	3	0	1	0	0	0
"111"	111	111	1	1	1	3	2	0	0	1	0	0	0	0	0	1	1	1	0	0	0
"112"	112	112	1	1	1	4	1	0	0	1	0	0	0	0	0	3	1	1	0	0	0
"113"	113	113	1	1	1	5	2	0	0	1	0	0	0	0	0	1	1	1	0	0	0
"114"	114	114	1	1	1	6	1	1	1	1	0	0	0	0	0	2	0	1	3	0	0
"115"	115	115	1	1	1	7	1	0	0	1	0	0	0	0	0	3	1	1	0	0	0
"116"	116	116	1	1	1	8	1	0	0	1	0	0	0	0	0	2	1	1	4	0	0
"117"	117	117	1	1	1	9	1	0	0	1	0	0	0	0	0	3	1	1	0	0	0
"118"	118	118	1	1	1	10	1	0	0	1	0	0	0	0	0	2	1	1	4	0	0
"119"	119	119	1	1	1	11	1	0	0	1	0	0	0	0	0	2	1	1	4	0	0
"120"	120	120	1	1	1	12	2	1	0	1	0	0	0	0	0	1	0	1	0	0	0
"121"	121	121	1	1	2	1	1	0	0	1	0	0	0	0	0	1	1	1	0	0	0
"122"	122	122	1	1	2	2	2	0	1	1	0	0	0	0	0	3	1	1	0	0	0
"123"	123	123	1	1	2	3	2	0	0	1	0	0	0	0	0	1	1	1	0	0	0
"124"	124	124	1	1	2	4	1	0	0	1	0	0	0	0	0	3	1	1	0	0	0
"125"	125	125	1	1	2	5	2	0	0	1	0	0	0	0	0	1	1	1	0	0	0
"126"	126	126	1	1	2	6	2	0	1	1	0	0	0	0	0	2	1	1	4	0	0
"127"	127	127	1	1	2	7	1	0	0	1	0	0	0	0	0	3	1	1	0	0	0
"128"	128	128	1	1	2	8	1	0	0	1	0	0	0	0	0	2	1	1	4	0	0
"129"	129	129	1	1	2	9	1	0	0	1	0	0	0	0	0	3	1	1	0	0	0
"130"	130	130	1	1	2	10	1	0	0	1	0	0	0	0	0	2	1	1	4	0	0
"131"	131	131	1	1	2	11	1	0	0	1	0	0	0	0	0	2	1	1	4	0	0
"132"	132	132	1	1	2	12	2	0	0	1	0	0	0	0	0	1	1	1	0	0	0
"133"	133	133	1	1	3	1	1	1	1	1	1	1	0	1	1	1	0	1	0	0	1
"134"	134	134	1	1	3	2	2	0	1	1	0	0	0	0	0	3	1	1	0	0	0
"135"	135	135	1	1	3	3	2	0	0	1	0	0	0	0	0	1	1	1	0	0	0
"136"	136	136	1	1	3	4	1	0	0	1	0	0	0	0	0	3	1	1	0	0	0
"137"	137	137	1	1	3	5	2	0	0	1	0	0	0	0	0	1	1	1	0	0	0
"138"	138	138	1	1	3	6	2	0	1	1	0	0	0	0	0	2	1	1	4	0	0
"139"	139	139	1	1	3	7	1	0	0	1	0	0	0	0	0	3	1	1	0	0	0
"140"	140	140	1	1	3	8	1	1	1	1	1	1	0	1	1	2	0	1	5	0	1
"141"	141	141	1	1	3	9	1	1	1	1	1	1	0	1	1	3	0	1	0	0	1
"142"	142	142	1	1	3	10	1	0	0	1	0	0	0	0	0	2	1	1	4	0	0
"143"	143	143	1	1	3	11	1	0	0	1	0	0	0	0	0	2	1	1	4	0	0
"144"	144	144	1	1	3	12	2	0	0	1	0	0	0	0	0	1	1	1	0	0	0
"145"	145	145	1	1	4	1	1	0	1	2	1	1	0	0	0	1	1	1	0	0	0
"146"	146	146	1	1	4	2	2	0	1	1	0	0	0	0	0	3	1	1	0	0	0
"147"	147	147	1	1	4	3	2	0	0	1	0	0	0	0	0	1	1	1	0	0	0
"148"	148	148	1	1	4	4	1	0	0	1	0	0	0	0	0	3	1	1	0	0	0
"149"	149	149	1	1	4	5	2	0	0	1	1	1	0	1	1	1	1	1	0	0	1
"150"	150	150	1	1	4	6	2	0	1	1	0	0	0	0	0	2	1	1	4	0	0
"151"	151	151	1	1	4	7	1	1	1	1	1	1	0	1	1	3	1	1	0	0	1
"152"	152	152	1	1	4	8	1	0	1	3	1	1	0	0	0	2	1	1	4	0	0
"153"	153	153	1	1	4	9	1	0	1	3	1	1	0	0	0	3	1	1	0	0	0
"154"	154	154	1	1	4	10	1	1	1	1	1	1	0	1	1	2	1	1	5	0	1
"155"	155	155	1	1	4	11	1	0	0	1	0	0	0	0	0	2	1	1	4	0	0
"156"	156	156	1	1	4	12	2	0	0	1	0	0	0	0	0	1	1	1	0	0	0
"157"	157	157	1	1	5	1	1	0	1	2	1	1	0	0	0	1	1	1	0	0	0
"158"	158	158	1	1	5	2	2	0	1	1	0	0	0	0	0	3	1	1	0	0	0
"159"	159	159	1	1	5	3	2	0	0	1	0	0	0	0	0	1	1	1	0	0	0
"160"	160	160	1	1	5	4	1	0	0	1	0	0	0	0	0	3	1	1	0	0	0
"161"	161	161	1	1	5	5	1	0	0	3	1	1	0	0	0	1	1	0	0	0	0
"162"	162	162	1	1	5	6	2	0	1	1	0	0	0	0	0	2	1	1	4	0	0
"163"	163	163	1	1	5	7	1	0	1	2	1	1	0	0	0	3	1	0	0	0	0
"164"	164	164	1	1	5	8	1	0	1	3	1	1	0	0	0	2	1	1	4	0	0
"165"	165	165	1	1	5	9	1	0	1	3	1	1	0	0	0	3	1	1	0	0	0
"166"	166	166	1	1	5	10	1	0	1	2	1	1	0	0	0	2	1	0	4	0	0
"167"	167	167	1	1	5	11	1	0	0	1	0	0	0	0	0	2	1	1	4	0	0
"168"	168	168	1	1	5	12	2	0	0	1	0	0	0	0	0	1	1	1	0	0	0
"169"	169	169	1	1	6	1	1	0	1	2	1	1	0	0	0	1	1	1	0	0	0
"170"	170	170	1	1	6	2	2	0	1	1	0	0	0	0	0	3	1	1	0	0	0
"171"	171	171	1	1	6	3	2	0	0	1	0	0	0	0	0	1	1	1	0	0	0
"172"	172	172	1	1	6	4	1	0	0	1	0	0	0	0	0	3	1	1	0	0	0
"173"	173	173	1	1	6	5	1	0	0	3	1	1	0	0	0	1	1	0	0	0	1
"174"	174	174	1	1	6	6	2	0	1	1	0	0	0	0	0	2	1	1	4	0	0
"175"	175	175	1	1	6	7	1	0	1	2	1	1	0	0	0	3	1	0	0	0	1
"176"	176	176	1	1	6	8	1	0	1	3	1	1	0	0	0	2	1	1	4	0	0
"177"	177	177	1	1	6	9	1	0	1	3	1	1	0	0	0	3	1	1	0	0	0
"178"	178	178	1	1	6	10	1	0	1	2	1	1	0	0	0	2	1	0	2	0	1
"179"	179	179	1	1	6	11	1	0	0	1	0	0	0	0	0	2	1	1	4	0	0
"180"	180	180	1	1	6	12	2	0	0	1	0	0	0	0	0	1	1	1	0	0	0
"181"	181	181	1	1	1	1	2	0	0	1	0	0	0	0	0	3	1	1	0	0	0
"182"	182	182	1	1	1	2	2	0	0	1	0	0	0	0	0	1	1	0	0	0	0
"183"	183	183	1	1	1	3	2	0	0	1	0	0	0	0	0	3	1	0	0	0	0
"184"	184	184	1	1	1	4	1	0	0	1	0	0	0	0	0	2	1	1	4	0	0
"185"	185	185	1	1	1	5	1	0	0	1	0	0	0	0	0	2	1	0	4	0	0
"186"	186	186	1	1	1	6	1	0	0	1	0	0	0	0	0	1	1	1	0	0	0
"187"	187	187	1	1	1	7	1	0	0	1	0	0	0	0	0	1	1	1	0	0	0
"188"	188	188	1	1	1	8	1	0	0	1	0	0	0	0	0	3	1	1	0	0	0
"189"	189	189	1	1	1	9	1	0	0	1	0	0	0	0	0	1	1	1	0	0	0
"190"	190	190	1	1	1	10	2	0	0	1	0	0	0	0	0	2	1	1	4	0	0
"191"	191	191	1	1	1	11	1	0	0	1	0	0	0	0	0	2	1	1	4	0	0
"192"	192	192	1	1	1	12	1	0	0	1	0	0	0	0	0	3	1	1	0	0	0
"193"	193	193	1	1	2	1	2	0	0	1	0	0	0	0	0	3	1	1	0	0	0
"194"	194	194	1	1	2	2	2	0	0	1	0	0	0	0	0	1	1	1	0	0	0
"195"	195	195	1	1	2	3	2	0	0	1	0	0	0	0	0	3	1	1	0	0	0
"196"	196	196	1	1	2	4	1	0	0	1	0	0	0	0	0	2	1	1	4	0	0
"197"	197	197	1	1	2	5	1	0	0	1	0	0	0	0	0	2	1	1	4	0	0
"198"	198	198	1	1	2	6	1	0	0	1	0	0	0	0	0	1	1	1	0	0	0
"199"	199	199	1	1	2	7	1	0	0	1	0	0	0	0	0	1	1	0	0	0	0
"200"	200	200	1	1	2	8	1	0	0	1	1	0	0	0	0	3	1	0	0	0	1
"201"	201	201	1	1	2	9	1	0	0	1	1	0	0	0	0	1	1	0	0	0	1
"202"	202	202	1	1	2	10	2	0	0	1	1	0	0	0	0	2	1	0	2	0	1
"203"	203	203	1	1	2	11	1	0	0	1	0	0	0	0	0	2	1	0	4	0	0
"204"	204	204	1	1	2	12	1	0	0	1	0	0	0	0	0	3	1	0	0	0	0
"205"	205	205	1	1	3	1	2	0	0	1	0	0	0	0	0	3	1	1	0	0	0
"206"	206	206	1	1	3	2	2	0	0	1	0	0	0	0	0	1	1	0	0	0	0
"207"	207	207	1	1	3	3	2	0	0	1	0	0	0	0	0	3	1	0	0	0	0
"208"	208	208	1	1	3	4	1	0	0	1	0	0	0	0	0	2	1	1	4	0	0
"209"	209	209	1	1	3	5	1	0	0	1	0	0	0	0	0	2	1	0	4	0	0
"210"	210	210	1	1	3	6	1	0	0	1	0	0	0	0	0	1	1	1	0	0	0
"211"	211	211	1	1	3	7	1	0	0	1	1	0	0	0	0	1	1	0	0	0	1
"212"	212	212	1	1	3	8	1	0	0	3	1	0	0	0	0	3	1	0	0	0	0
"213"	213	213	1	1	3	9	1	0	0	3	1	0	0	0	0	1	1	0	0	0	0
"214"	214	214	1	1	3	10	2	0	0	3	1	0	0	0	0	2	1	0	4	0	0
"215"	215	215	1	1	3	11	1	0	0	1	1	0	0	0	0	2	1	0	2	0	1
"216"	216	216	1	1	3	12	1	0	0	1	1	0	0	0	0	3	1	0	0	0	1
"217"	217	217	2	1	1	1	1	0	0	1	0	0	0	0	0	1	0	0	0	0	0
"218"	218	218	2	1	1	2	2	0	0	1	1	0	0	0	0	2	1	0	2	0	1
"219"	219	219	2	1	1	3	2	0	0	1	1	0	0	0	0	3	1	0	0	0	1
"220"	220	220	2	1	1	4	1	0	0	1	0	0	0	0	0	1	1	1	0	0	0
"221"	221	221	2	1	1	5	2	0	0	1	1	0	0	0	0	1	1	1	0	0	1
"222"	222	222	2	1	1	6	2	0	0	1	0	0	0	0	0	3	1	1	0	0	0
"223"	223	223	2	1	1	7	1	0	0	1	1	0	0	0	0	3	1	1	0	0	1
"224"	224	224	2	1	1	8	2	0	0	1	0	0	0	0	0	2	1	1	4	0	0
"225"	225	225	2	1	1	9	2	0	0	1	0	0	0	0	0	2	0	0	4	0	0
"226"	226	226	2	1	1	10	2	0	0	1	1	0	0	0	0	2	1	1	2	0	1
"227"	227	227	2	1	1	11	2	0	0	2	0	0	0	0	0	1	1	0	0	0	1
"228"	228	228	2	1	1	12	1	0	0	1	0	0	0	0	0	3	0	0	0	0	0
"229"	229	229	2	1	2	1	1	1	1	1	1	1	0	1	1	1	0	1	0	0	1
"230"	230	230	2	1	2	2	2	0	0	3	1	0	0	0	0	2	1	0	2	0	1
"231"	231	231	2	1	2	3	2	0	0	2	1	0	0	0	0	3	1	0	0	0	1
"232"	232	232	2	1	2	4	1	0	0	1	0	0	0	0	0	1	0	0	0	0	0
"233"	233	233	2	1	2	5	2	0	0	3	1	0	0	0	0	1	1	0	0	0	0
"234"	234	234	2	1	2	6	2	0	0	1	0	0	0	0	0	3	0	0	0	0	0
"235"	235	235	2	1	2	7	1	0	0	2	1	0	0	0	0	3	1	0	0	0	0
"236"	236	236	2	1	2	8	2	0	0	1	0	0	0	0	0	2	0	0	4	0	0
"237"	237	237	2	1	2	9	2	0	0	1	1	1	0	1	1	2	0	1	5	0	1
"238"	238	238	2	1	2	10	2	0	0	2	1	0	0	0	0	2	1	0	4	0	0
"239"	239	239	2	1	2	11	2	0	0	1	1	0	0	0	0	1	1	0	0	0	1
"240"	240	240	2	1	2	12	1	1	1	1	1	1	0	1	1	3	0	1	0	0	1
"241"	241	241	2	1	3	1	1	0	1	3	1	1	0	0	0	1	1	0	0	0	0
"242"	242	242	2	1	3	2	2	0	0	3	1	0	0	0	0	2	1	0	4	0	0
"243"	243	243	2	1	3	3	2	0	0	3	1	0	0	0	0	3	1	0	0	0	0
"244"	244	244	2	1	3	4	1	1	1	1	1	0	0	0	0	1	0	0	0	0	1
"245"	245	245	2	1	3	5	2	0	0	3	1	0	0	0	0	1	1	0	0	0	1
"246"	246	246	2	1	3	6	2	1	0	1	1	0	0	0	0	3	0	0	0	0	1
"247"	247	247	2	1	3	7	1	0	0	2	1	0	0	0	0	3	1	0	0	0	1
"248"	248	248	2	1	3	8	2	1	0	1	1	0	0	0	0	2	0	0	1	0	1
"249"	249	249	2	1	3	9	1	0	0	3	1	1	0	0	0	2	1	0	4	0	0
"250"	250	250	2	1	3	10	2	0	0	2	1	0	0	0	0	2	1	0	2	0	1
"251"	251	251	2	1	3	11	2	0	0	3	1	0	0	0	0	1	1	0	0	0	0
"252"	252	252	2	1	3	12	1	0	1	2	1	1	0	0	0	3	1	0	0	0	0
"253"	253	253	2	1	4	1	1	0	1	3	1	1	0	0	0	1	0	0	0	0	0
"254"	254	254	2	1	4	2	2	0	0	3	1	0	0	0	0	2	1	0	4	0	0
"255"	255	255	2	1	4	3	2	0	0	3	1	0	0	0	0	3	1	0	0	0	0
"256"	256	256	2	1	4	4	1	0	1	3	1	0	0	0	0	1	0	0	0	0	0
"257"	257	257	2	1	4	5	2	0	0	3	1	0	0	0	0	1	1	0	0	0	1
"258"	258	258	2	1	4	6	2	0	0	3	1	0	0	0	0	3	0	0	0	0	0
"259"	259	259	2	1	4	7	1	0	0	3	1	0	0	0	0	3	1	0	0	0	1
"260"	260	260	2	1	4	8	2	0	0	3	1	0	0	0	0	2	0	0	4	0	0
"261"	261	261	2	1	4	9	1	0	0	3	1	1	0	0	0	2	0	0	4	0	0
"262"	262	262	2	1	4	10	2	0	0	2	1	0	0	0	0	2	1	0	2	0	1
"263"	263	263	2	1	4	11	2	0	0	3	1	0	0	0	0	1	1	0	0	0	0
"264"	264	264	2	1	4	12	1	0	1	2	1	1	0	0	0	3	0	0	0	0	0
"265"	265	265	2	1	5	1	1	0	1	3	1	1	0	0	0	1	0	0	0	0	0
"266"	266	266	2	1	5	2	2	0	0	3	1	0	0	0	0	2	1	0	4	0	0
"267"	267	267	2	1	5	3	2	0	0	3	1	0	0	0	0	3	1	0	0	0	0
"268"	268	268	2	1	5	4	1	1	1	3	1	0	0	0	0	1	0	0	0	0	1
"269"	269	269	2	1	5	5	2	0	0	3	1	0	0	0	0	1	1	0	0	0	1
"270"	270	270	2	1	5	6	2	1	0	3	1	0	0	0	0	3	0	0	0	0	1
"271"	271	271	2	1	5	7	1	0	0	3	1	0	0	0	0	3	1	0	0	0	1
"272"	272	272	2	1	5	8	2	1	0	3	1	0	0	0	0	2	0	0	1	0	1
"273"	273	273	2	1	5	9	1	0	0	3	1	1	0	0	0	2	0	0	4	0	0
"274"	274	274	2	1	5	10	2	0	0	2	1	0	0	0	0	2	1	0	2	0	1
"275"	275	275	2	1	5	11	2	0	0	3	1	0	0	0	0	1	1	0	0	0	0
"276"	276	276	2	1	5	12	1	0	1	2	1	1	0	0	0	3	0	0	0	0	0
"277"	277	277	2	1	6	1	1	0	1	3	1	1	0	0	0	1	1	0	0	0	0
"278"	278	278	2	1	6	2	2	0	0	3	1	0	0	0	0	2	1	0	4	0	0
"279"	279	279	2	1	6	3	2	0	0	3	1	0	0	0	0	3	1	0	0	0	0
"280"	280	280	2	1	6	4	1	0	1	2	1	0	0	0	0	1	0	1	0	0	0
"281"	281	281	2	1	6	5	2	0	0	2	1	0	0	0	0	1	1	1	0	0	0
"282"	282	282	2	1	6	6	2	0	0	2	1	0	0	0	0	3	0	1	0	0	0
"283"	283	283	2	1	6	7	1	0	0	2	1	0	0	0	0	3	1	1	0	0	0
"284"	284	284	2	1	6	8	2	0	0	3	1	0	0	0	0	2	0	1	4	0	0
"285"	285	285	2	1	6	9	1	0	0	3	1	1	0	0	0	2	1	0	4	0	0
"286"	286	286	2	1	6	10	2	0	0	3	1	0	0	0	0	2	1	1	4	0	0
"287"	287	287	2	1	6	11	2	0	0	3	1	0	0	0	0	1	1	0	0	0	0
"288"	288	288	2	1	6	12	1	0	1	2	1	1	0	0	0	3	1	0	0	0	0
"289"	289	289	2	1	7	1	1	0	1	3	1	1	0	0	0	1	0	0	0	0	0
"290"	290	290	2	1	7	2	2	0	0	3	1	0	0	0	0	2	1	0	2	0	1
"291"	291	291	2	1	7	3	2	0	0	3	1	0	0	0	0	3	1	0	0	0	1
"292"	292	292	2	1	7	4	1	1	1	2	1	0	0	0	0	1	0	1	0	0	0
"293"	293	293	2	1	7	5	2	0	0	2	1	0	0	0	0	1	1	1	0	0	0
"294"	294	294	2	1	7	6	2	1	0	2	1	0	0	0	0	3	0	1	0	0	0
"295"	295	295	2	1	7	7	1	0	0	2	1	0	0	0	0	3	1	1	0	0	0
"296"	296	296	2	1	7	8	2	1	0	3	1	0	0	0	0	2	0	1	3	0	0
"297"	297	297	2	1	7	9	1	0	0	3	1	1	0	0	0	2	0	0	4	0	0
"298"	298	298	2	1	7	10	2	0	0	3	1	0	0	0	0	2	1	1	4	0	0
"299"	299	299	2	1	7	11	2	0	0	3	1	0	0	0	0	1	1	0	0	0	1
"300"	300	300	2	1	7	12	1	0	1	2	1	1	0	0	0	3	0	0	0	0	0
"301"	301	301	2	1	1	1	1	0	0	1	0	0	0	0	0	3	1	0	0	0	0
"302"	302	302	2	1	1	2	2	0	0	1	0	0	0	0	0	1	1	1	0	0	0
"303"	303	303	2	1	1	3	2	0	0	1	0	0	0	0	0	3	1	1	0	0	0
"304"	304	304	2	1	1	4	1	0	0	1	0	0	0	0	0	1	1	1	0	0	0
"305"	305	305	2	1	1	5	1	0	0	1	0	0	0	0	0	3	1	1	0	0	0
"306"	306	306	2	1	1	6	1	1	1	1	1	1	0	1	1	3	0	1	0	0	1
"307"	307	307	2	1	1	7	1	1	1	1	1	1	0	1	1	2	0	1	5	0	1
"308"	308	308	2	1	1	8	1	0	0	1	0	0	0	0	0	2	1	1	4	0	0
"309"	309	309	2	1	1	9	1	0	0	1	0	0	0	0	0	2	1	0	4	0	0
"310"	310	310	2	1	1	10	2	0	0	1	0	0	0	0	0	2	1	1	4	0	0
"311"	311	311	2	1	1	11	1	0	0	1	0	0	0	0	0	1	1	0	0	0	0
"312"	312	312	2	1	1	12	2	0	0	1	1	1	0	1	1	1	0	1	0	0	1
"313"	313	313	2	1	2	1	1	0	0	1	0	0	0	0	0	3	1	0	0	0	0
"314"	314	314	2	1	2	2	2	0	0	1	0	0	0	0	0	1	1	1	0	0	0
"315"	315	315	2	1	2	3	2	0	0	1	0	0	0	0	0	3	1	1	0	0	0
"316"	316	316	2	1	2	4	1	0	0	1	0	0	0	0	0	1	1	1	0	0	0
"317"	317	317	2	1	2	5	1	0	0	1	0	0	0	0	0	3	1	1	0	0	0
"318"	318	318	2	1	2	6	1	0	1	3	1	1	0	0	0	3	1	0	0	0	1
"319"	319	319	2	1	2	7	1	0	1	3	1	1	0	0	0	2	1	0	2	0	1
"320"	320	320	2	1	2	8	1	0	0	1	0	0	0	0	0	2	1	1	4	0	0
"321"	321	321	2	1	2	9	1	0	0	1	0	0	0	0	0	2	1	0	4	0	0
"322"	322	322	2	1	2	10	2	0	0	1	0	0	0	0	0	2	1	1	4	0	0
"323"	323	323	2	1	2	11	1	0	0	1	0	0	0	0	0	1	1	0	0	0	0
"324"	324	324	2	1	2	12	1	0	0	2	1	1	0	0	0	1	1	0	0	0	1
"325"	325	325	2	1	3	1	1	0	0	1	0	0	0	0	0	3	0	0	0	0	0
"326"	326	326	2	1	3	2	2	0	0	1	0	0	0	0	0	1	1	1	0	0	0
"327"	327	327	2	1	3	3	2	0	0	1	0	0	0	0	0	3	1	1	0	0	0
"328"	328	328	2	1	3	4	1	0	0	1	0	0	0	0	0	1	1	1	0	0	0
"329"	329	329	2	1	3	5	1	0	0	1	0	0	0	0	0	3	1	1	0	0	0
"330"	330	330	2	1	3	6	1	0	1	3	1	1	0	0	0	3	1	0	0	0	1
"331"	331	331	2	1	3	7	1	0	1	3	1	1	0	0	0	2	1	0	2	0	1
"332"	332	332	2	1	3	8	1	0	0	1	0	0	0	0	0	2	1	1	4	0	0
"333"	333	333	2	1	3	9	1	0	0	1	0	0	0	0	0	2	0	0	4	0	0
"334"	334	334	2	1	3	10	2	0	0	1	0	0	0	0	0	2	1	1	4	0	0
"335"	335	335	2	1	3	11	1	0	0	1	0	0	0	0	0	1	0	0	0	0	0
"336"	336	336	2	1	3	12	1	0	0	2	1	1	0	0	0	1	1	0	0	0	1
"337"	337	337	2	1	4	1	1	0	0	1	0	0	0	0	0	3	1	0	0	0	0
"338"	338	338	2	1	4	2	2	0	0	1	0	0	0	0	0	1	1	1	0	0	0
"339"	339	339	2	1	4	3	2	0	0	1	1	0	0	0	0	3	1	0	0	0	1
"340"	340	340	2	1	4	4	1	0	0	1	1	0	0	0	0	1	1	0	0	0	1
"341"	341	341	2	1	4	5	1	0	0	1	0	0	0	0	0	3	1	1	0	0	0
"342"	342	342	2	1	4	6	1	0	1	2	1	1	0	0	0	3	1	1	0	0	0
"343"	343	343	2	1	4	7	1	0	1	3	1	1	0	0	0	2	1	1	4	0	0
"344"	344	344	2	1	4	8	1	0	0	1	0	0	0	0	0	2	1	1	4	0	0
"345"	345	345	2	1	4	9	1	0	0	1	0	0	0	0	0	2	1	0	4	0	0
"346"	346	346	2	1	4	10	2	0	0	1	1	0	0	0	0	2	1	0	2	0	1
"347"	347	347	2	1	4	11	1	0	0	1	0	0	0	0	0	1	1	0	0	0	0
"348"	348	348	2	1	4	12	1	0	0	3	1	1	0	0	0	1	1	1	0	0	0
"349"	349	349	2	1	1	1	1	1	1	1	1	0	0	0	0	1	0	1	0	0	1
"350"	350	350	2	1	1	2	1	0	0	1	1	0	0	0	0	1	1	0	0	0	1
"351"	351	351	2	1	1	3	1	0	0	1	0	0	0	0	0	3	1	1	0	0	0
"352"	352	352	2	1	1	4	1	0	0	1	0	0	0	0	0	2	1	1	4	0	0
"353"	353	353	2	1	1	5	1	0	0	2	0	0	0	0	0	3	1	0	0	0	1
"354"	354	354	2	1	1	6	1	0	0	1	0	0	0	0	0	1	1	1	0	0	0
"355"	355	355	2	1	1	7	1	0	0	1	0	0	0	0	0	1	1	1	0	0	0
"356"	356	356	2	1	1	8	1	0	0	1	1	0	0	0	0	2	1	0	2	0	1
"357"	357	357	2	1	1	9	2	0	0	1	0	0	0	0	0	3	1	1	0	0	0
"358"	358	358	2	1	1	10	2	1	0	1	1	0	0	0	0	3	0	1	0	0	1
"359"	359	359	2	1	1	11	2	0	0	1	0	0	0	0	0	2	1	1	4	0	0
"360"	360	360	2	1	1	12	2	1	0	1	1	0	0	0	0	2	0	1	1	0	1
"361"	361	361	2	1	1	1	2	0	0	1	1	0	0	0	0	2	1	0	2	0	1
"362"	362	362	2	1	1	2	2	0	0	1	1	0	0	0	0	3	1	0	0	0	1
"363"	363	363	2	1	1	3	2	0	0	1	0	0	0	0	0	1	1	1	0	0	0
"364"	364	364	2	1	1	4	2	0	0	1	0	0	0	0	0	1	1	1	0	0	0
"365"	365	365	2	1	1	5	2	0	0	1	1	0	0	0	0	1	1	0	0	0	1
"366"	366	366	2	1	1	6	2	0	0	1	0	0	0	0	0	3	1	1	0	0	0
"367"	367	367	2	1	1	7	2	0	0	1	0	0	0	0	0	3	1	1	0	0	0
"368"	368	368	2	1	1	8	1	0	0	1	0	0	0	0	0	1	0	0	0	0	0
"369"	369	369	2	1	1	9	1	0	0	1	0	0	0	0	0	2	0	0	4	0	0
"370"	370	370	2	1	1	10	2	0	0	1	0	0	0	0	0	3	0	0	0	0	0
"371"	371	371	2	1	1	11	2	0	0	1	0	0	0	0	0	2	1	1	4	0	0
"372"	372	372	2	1	1	12	2	0	0	1	0	0	0	0	0	2	1	1	4	0	0
"373"	373	373	3	1	1	1	2	0	0	1	0	0	0	0	0	2	1	1	4	0	0
"374"	374	374	3	1	1	2	1	0	0	1	0	0	0	0	0	3	0	0	0	0	0
"375"	375	375	3	1	1	3	2	0	0	1	0	0	0	0	0	1	1	1	0	0	0
"376"	376	376	3	1	1	4	2	0	0	1	1	0	0	0	0	1	1	0	0	0	1
"377"	377	377	3	1	1	5	2	0	0	1	0	0	0	0	0	1	0	0	0	0	0
"378"	378	378	3	1	1	6	2	0	0	1	1	0	0	0	0	3	1	0	0	0	1
"379"	379	379	3	1	1	7	1	0	0	1	0	0	0	0	0	2	0	0	4	0	0
"380"	380	380	3	1	1	8	2	0	0	1	1	0	0	0	0	2	1	0	2	0	1
"381"	381	381	3	1	1	9	2	0	0	1	0	0	0	0	0	3	1	1	0	0	0
"382"	382	382	3	1	2	1	2	0	0	1	0	0	0	0	0	2	1	1	4	0	0
"383"	383	383	3	1	2	2	1	1	1	1	1	1	0	1	1	3	0	0	0	0	1
"384"	384	384	3	1	2	3	2	0	0	1	0	0	0	0	0	1	1	1	0	0	0
"385"	385	385	3	1	2	4	2	0	0	3	1	0	0	0	0	1	1	0	0	0	1
"386"	386	386	3	1	2	5	2	0	0	1	1	1	0	1	1	1	0	0	0	0	1
"387"	387	387	3	1	2	6	2	0	0	2	1	0	0	0	0	3	1	0	0	0	1
"388"	388	388	3	1	2	7	1	1	1	1	1	1	0	1	1	2	0	0	5	0	1
"389"	389	389	3	1	2	8	2	0	0	2	1	0	0	0	0	2	1	0	2	0	1
"390"	390	390	3	1	2	9	2	0	0	1	0	0	0	0	0	3	1	1	0	0	0
"391"	391	391	3	1	3	1	2	0	0	1	0	0	0	0	0	2	1	1	4	0	0
"392"	392	392	3	1	3	2	1	0	1	2	1	1	0	0	0	3	1	1	0	0	0
"393"	393	393	3	1	3	3	2	0	0	1	0	0	0	0	0	1	1	1	0	0	0
"394"	394	394	3	1	3	4	2	0	0	2	1	0	0	0	0	1	1	1	0	0	0
"395"	395	395	3	1	3	5	1	0	0	2	1	1	0	0	0	1	1	1	0	0	0
"396"	396	396	3	1	3	6	2	0	0	2	1	0	0	0	0	3	1	1	0	0	0
"397"	397	397	3	1	3	7	1	0	1	2	1	1	0	0	0	2	1	1	4	0	0
"398"	398	398	3	1	3	8	2	0	0	3	1	0	0	0	0	2	1	1	4	0	0
"399"	399	399	3	1	3	9	2	0	0	1	0	0	0	0	0	3	1	1	0	0	0
"400"	400	400	3	1	4	1	2	0	0	1	0	0	0	0	0	2	1	1	4	0	0
"401"	401	401	3	1	4	2	1	1	1	2	1	1	1	1	1	3	0	1	0	0	0
"402"	402	402	3	1	4	3	2	0	0	1	0	0	0	0	0	1	1	1	0	0	0
"403"	403	403	3	1	4	4	2	0	0	2	1	0	0	0	0	1	1	1	0	0	0
"404"	404	404	3	1	4	5	1	1	0	2	1	1	1	1	1	1	0	1	0	0	0
"405"	405	405	3	1	4	6	2	0	0	2	1	0	0	0	0	3	1	1	0	0	0
"406"	406	406	3	1	4	7	1	1	1	2	1	1	1	1	1	2	0	1	5	0	0
"407"	407	407	3	1	4	8	2	0	0	3	1	0	0	0	0	2	1	1	4	0	0
"408"	408	408	3	1	4	9	2	0	0	1	0	0	0	0	0	3	1	1	0	0	0
"409"	409	409	3	1	5	1	2	0	0	1	0	0	0	0	0	2	1	1	4	0	0
"410"	410	410	3	1	5	2	2	0	1	3	1	1	1	0	0	3	1	0	0	0	0
"411"	411	411	3	1	5	3	2	0	0	1	0	0	0	0	0	1	1	1	0	0	0
"412"	412	412	3	1	5	4	2	0	0	2	1	0	0	0	0	1	1	1	0	0	0
"413"	413	413	3	1	5	5	2	0	0	3	1	1	1	0	0	1	1	0	0	0	0
"414"	414	414	3	1	5	6	2	0	0	2	1	0	0	0	0	3	1	1	0	0	0
"415"	415	415	3	1	5	7	2	0	1	2	1	1	1	0	0	2	1	0	4	0	0
"416"	416	416	3	1	5	8	2	0	0	3	1	0	0	0	0	2	1	1	4	0	0
"417"	417	417	3	1	5	9	2	0	0	1	0	0	0	0	0	3	1	1	0	0	0
"418"	418	418	3	1	6	1	2	0	0	1	0	0	0	0	0	2	1	1	4	0	0
"419"	419	419	3	1	6	2	2	0	1	3	1	1	1	0	0	3	1	0	0	0	0
"420"	420	420	3	1	6	3	2	0	0	1	0	0	0	0	0	1	1	1	0	0	0
"421"	421	421	3	1	6	4	2	0	0	2	1	0	0	0	0	1	1	1	0	0	0
"422"	422	422	3	1	6	5	2	0	0	3	1	1	1	0	0	1	1	0	0	0	0
"423"	423	423	3	1	6	6	2	0	0	2	1	0	0	0	0	3	1	1	0	0	0
"424"	424	424	3	1	6	7	2	0	1	2	1	1	1	0	0	2	1	0	4	0	0
"425"	425	425	3	1	6	8	2	0	0	3	1	0	0	0	0	2	1	1	4	0	0
"426"	426	426	3	1	6	9	2	0	0	1	0	0	0	0	0	3	1	1	0	0	0
"427"	427	427	3	1	7	1	2	0	0	1	0	0	0	0	0	2	1	1	4	0	0
"428"	428	428	3	1	7	2	2	0	1	3	1	1	1	0	0	3	1	0	0	0	0
"429"	429	429	3	1	7	3	2	0	0	1	0	0	0	0	0	1	1	1	0	0	0
"430"	430	430	3	1	7	4	2	0	0	2	1	0	0	0	0	1	1	1	0	0	0
"431"	431	431	3	1	7	5	2	0	0	3	1	1	1	0	0	1	1	0	0	0	0
"432"	432	432	3	1	7	6	2	0	0	2	1	0	0	0	0	3	1	1	0	0	0
"433"	433	433	3	1	7	7	2	0	1	2	1	1	1	0	0	2	1	0	4	0	0
"434"	434	434	3	1	7	8	2	0	0	3	1	0	0	0	0	2	1	1	4	0	0
"435"	435	435	3	1	7	9	2	0	0	1	0	0	0	0	0	3	1	1	0	0	0
"436"	436	436	3	1	8	1	2	0	0	1	0	0	0	0	0	2	1	1	4	0	0
"437"	437	437	3	1	8	2	2	0	1	3	1	1	1	0	0	3	1	0	0	0	0
"438"	438	438	3	1	8	3	2	0	0	1	0	0	0	0	0	1	1	1	0	0	0
"439"	439	439	3	1	8	4	2	0	0	2	1	0	0	0	0	1	1	1	0	0	0
"440"	440	440	3	1	8	5	2	0	0	3	1	1	1	0	0	1	1	0	0	0	0
"441"	441	441	3	1	8	6	2	0	0	2	1	0	0	0	0	3	1	1	0	0	0
"442"	442	442	3	1	8	7	2	0	1	2	1	1	1	0	0	2	1	0	4	0	0
"443"	443	443	3	1	8	8	2	0	0	3	1	0	0	0	0	2	1	1	4	0	0
"444"	444	444	3	1	8	9	2	0	0	1	0	0	0	0	0	3	1	1	0	0	0
"445"	445	445	3	1	1	1	1	0	0	1	1	0	0	0	0	2	0	0	2	0	1
"446"	446	446	3	1	1	2	2	0	0	1	0	0	0	0	0	3	1	1	0	0	0
"447"	447	447	3	1	1	3	2	0	0	1	0	0	0	0	0	2	1	1	4	0	0
"448"	448	448	3	1	1	4	2	0	0	1	0	0	0	0	0	3	1	1	0	0	0
"449"	449	449	3	1	1	5	1	0	0	1	0	0	0	0	0	1	1	1	0	0	0
"450"	450	450	3	1	1	6	1	0	0	1	0	0	0	0	0	1	1	1	0	0	0
"451"	451	451	3	1	1	7	2	0	0	1	1	0	0	0	0	3	0	0	0	0	1
"452"	452	452	3	1	1	8	2	0	0	1	0	0	0	0	0	2	1	1	4	0	0
"453"	453	453	3	1	1	9	2	0	0	2	0	0	0	0	0	1	0	0	0	0	1
"454"	454	454	3	1	2	1	1	0	0	3	1	0	0	0	0	2	0	0	4	0	0
"455"	455	455	3	1	2	2	2	0	0	1	0	0	0	0	0	3	1	1	0	0	0
"456"	456	456	3	1	2	3	2	0	0	1	0	0	0	0	0	2	1	1	4	0	0
"457"	457	457	3	1	2	4	2	0	0	1	0	0	0	0	0	3	1	1	0	0	0
"458"	458	458	3	1	2	5	1	0	0	1	0	0	0	0	0	1	1	1	0	0	0
"459"	459	459	3	1	2	6	1	0	0	1	0	0	0	0	0	1	1	1	0	0	0
"460"	460	460	3	1	2	7	2	0	0	3	1	0	0	0	0	3	0	0	0	0	0
"461"	461	461	3	1	2	8	2	0	0	1	0	0	0	0	0	2	1	1	4	0	0
"462"	462	462	3	1	2	9	2	0	0	1	0	0	0	0	0	1	0	0	0	0	0
"463"	463	463	3	1	3	1	1	0	0	3	1	0	0	0	0	2	0	0	4	0	0
"464"	464	464	3	1	3	2	2	0	0	1	0	0	0	0	0	3	1	1	0	0	0
"465"	465	465	3	1	3	3	2	0	0	1	0	0	0	0	0	2	1	1	4	0	0
"466"	466	466	3	1	3	4	2	0	0	1	0	0	0	0	0	3	1	1	0	0	0
"467"	467	467	3	1	3	5	1	0	0	1	0	0	0	0	0	1	1	1	0	0	0
"468"	468	468	3	1	3	6	1	0	0	1	0	0	0	0	0	1	1	1	0	0	0
"469"	469	469	3	1	3	7	2	0	0	3	1	0	0	0	0	3	0	0	0	0	0
"470"	470	470	3	1	3	8	2	0	0	1	0	0	0	0	0	2	1	1	4	0	0
"471"	471	471	3	1	3	9	2	0	0	1	0	0	0	0	0	1	0	0	0	0	0
"472"	472	472	3	1	4	1	1	0	0	3	1	0	0	0	0	2	0	0	4	0	0
"473"	473	473	3	1	4	2	2	0	0	1	0	0	0	0	0	3	1	1	0	0	0
"474"	474	474	3	1	4	3	2	0	0	1	0	0	0	0	0	2	1	1	4	0	0
"475"	475	475	3	1	4	4	2	0	0	1	0	0	0	0	0	3	1	1	0	0	0
"476"	476	476	3	1	4	5	1	0	0	1	0	0	0	0	0	1	1	1	0	0	0
"477"	477	477	3	1	4	6	1	0	0	1	0	0	0	0	0	1	1	1	0	0	0
"478"	478	478	3	1	4	7	2	0	0	3	1	0	0	0	0	3	0	0	0	0	0
"479"	479	479	3	1	4	8	2	0	0	1	0	0	0	0	0	2	1	1	4	0	0
"480"	480	480	3	1	4	9	2	0	0	1	0	0	0	0	0	1	0	0	0	0	0
"481"	481	481	3	1	5	1	1	0	0	3	1	0	0	0	0	2	0	0	4	0	0
"482"	482	482	3	1	5	2	2	0	0	1	0	0	0	0	0	3	1	1	0	0	0
"483"	483	483	3	1	5	3	2	0	0	1	0	0	0	0	0	2	1	0	4	0	0
"484"	484	484	3	1	5	4	2	0	0	1	0	0	0	0	0	3	1	0	0	0	0
"485"	485	485	3	1	5	5	1	0	0	1	0	0	0	0	0	1	1	1	0	0	0
"486"	486	486	3	1	5	6	1	0	0	1	0	0	0	0	0	1	1	0	0	0	0
"487"	487	487	3	1	5	7	2	0	0	3	1	0	0	0	0	3	0	0	0	0	0
"488"	488	488	3	1	5	8	2	0	0	1	0	0	0	0	0	2	1	1	4	0	0
"489"	489	489	3	1	5	9	2	0	0	1	0	0	0	0	0	1	0	0	0	0	0
"490"	490	490	3	1	6	1	1	0	0	3	1	0	0	0	0	2	0	0	4	0	0
"491"	491	491	3	1	6	2	2	0	0	1	0	0	0	0	0	3	1	1	0	0	0
"492"	492	492	3	1	6	3	2	0	0	1	1	0	0	0	0	2	1	0	2	0	1
"493"	493	493	3	1	6	4	2	0	0	1	1	0	0	0	0	3	1	0	0	0	1
"494"	494	494	3	1	6	5	1	0	0	1	0	0	0	0	0	1	1	1	0	0	0
"495"	495	495	3	1	6	6	1	0	0	1	1	0	0	0	0	1	1	0	0	0	1
"496"	496	496	3	1	6	7	2	0	0	3	1	0	0	0	0	3	0	0	0	0	0
"497"	497	497	3	1	6	8	2	0	0	1	0	0	0	0	0	2	1	1	4	0	0
"498"	498	498	3	1	6	9	2	0	0	1	0	0	0	0	0	1	0	0	0	0	0
"499"	499	499	3	1	1	1	2	0	0	1	0	0	0	0	0	2	1	0	4	0	0
"500"	500	500	3	1	1	2	1	0	0	1	1	0	0	0	0	2	1	0	2	0	1
"501"	501	501	3	1	1	3	1	0	0	1	0	0	0	0	0	3	1	0	0	0	0
"502"	502	502	3	1	1	4	1	0	0	1	1	0	0	0	0	1	1	0	0	0	1
"503"	503	503	3	1	1	5	1	1	1	1	1	0	0	0	0	3	0	0	0	0	1
"504"	504	504	3	1	1	6	2	1	0	1	1	0	0	0	0	1	0	0	0	0	1
"505"	505	505	3	1	1	7	2	0	0	1	1	0	0	0	0	3	1	0	0	0	1
"506"	506	506	3	1	1	8	1	0	0	1	0	0	0	0	0	1	1	0	0	0	0
"507"	507	507	3	1	1	9	2	1	0	1	1	0	0	0	0	2	0	0	1	0	1
"508"	508	508	3	1	2	1	2	0	0	1	0	0	0	0	0	2	1	0	4	0	0
"509"	509	509	3	1	2	2	1	1	1	2	1	0	0	1	1	2	0	1	5	0	1
"510"	510	510	3	1	2	3	1	0	0	1	0	0	0	0	0	3	1	0	0	0	0
"511"	511	511	3	1	2	4	1	1	1	2	1	0	0	1	1	1	0	1	0	0	1
"512"	512	512	3	1	2	5	1	1	1	3	1	0	0	0	0	3	0	0	0	0	1
"513"	513	513	3	1	2	6	2	1	0	2	1	0	0	0	0	1	0	0	0	0	1
"514"	514	514	3	1	2	7	2	0	0	2	1	0	0	1	0	3	0	1	0	0	1
"515"	515	515	3	1	2	8	1	0	0	1	0	0	0	0	0	1	1	0	0	0	0
"516"	516	516	3	1	2	9	2	1	0	3	1	0	0	0	0	2	0	0	1	0	1
"517"	517	517	3	1	3	1	2	0	0	1	0	0	0	0	0	2	1	0	4	0	0
"518"	518	518	3	1	3	2	2	0	1	2	1	0	0	0	0	2	1	1	4	0	0
"519"	519	519	3	1	3	3	1	0	0	1	0	0	0	0	0	3	1	0	0	0	0
"520"	520	520	3	1	3	4	2	0	1	3	1	0	0	0	0	1	1	1	0	0	0
"521"	521	521	3	1	3	5	1	0	1	3	1	0	0	0	0	3	0	0	0	0	0
"522"	522	522	3	1	3	6	2	0	0	3	1	0	0	0	0	1	0	0	0	0	0
"523"	523	523	3	1	3	7	2	0	0	2	1	0	0	0	0	3	1	1	0	0	0
"524"	524	524	3	1	3	8	1	0	0	1	0	0	0	0	0	1	1	0	0	0	0
"525"	525	525	3	1	3	9	2	0	0	3	1	0	0	0	0	2	0	0	4	0	0
"526"	526	526	3	1	4	1	2	0	0	1	0	0	0	0	0	2	1	0	4	0	0
"527"	527	527	3	1	4	2	2	0	1	2	1	0	0	0	0	2	1	1	4	0	0
"528"	528	528	3	1	4	3	1	0	0	1	0	0	0	0	0	3	1	0	0	0	0
"529"	529	529	3	1	4	4	2	0	1	3	1	0	0	0	0	1	1	1	0	0	0
"530"	530	530	3	1	4	5	1	0	1	3	1	0	0	0	0	3	0	0	0	0	0
"531"	531	531	3	1	4	6	2	0	0	3	1	0	0	0	0	1	0	0	0	0	0
"532"	532	532	3	1	4	7	2	0	0	2	1	0	0	0	0	3	1	1	0	0	0
"533"	533	533	3	1	4	8	1	0	0	1	0	0	0	0	0	1	1	0	0	0	0
"534"	534	534	3	1	4	9	2	0	0	3	1	0	0	0	0	2	0	0	4	0	0
"535"	535	535	3	1	5	1	2	0	0	1	0	0	0	0	0	2	1	0	4	0	0
"536"	536	536	3	1	5	2	2	0	1	2	1	0	0	0	0	2	1	1	4	0	0
"537"	537	537	3	1	5	3	1	0	0	1	0	0	0	0	0	3	1	0	0	0	0
"538"	538	538	3	1	5	4	2	0	1	3	1	0	0	0	0	1	1	1	0	0	0
"539"	539	539	3	1	5	5	1	0	1	3	1	0	0	0	0	3	0	0	0	0	0
"540"	540	540	3	1	5	6	2	0	0	3	1	0	0	0	0	1	0	0	0	0	0
"541"	541	541	3	1	5	7	2	0	0	2	1	0	0	0	0	3	1	1	0	0	0
"542"	542	542	3	1	5	8	1	0	0	1	0	0	0	0	0	1	1	0	0	0	0
"543"	543	543	3	1	5	9	2	0	0	3	1	0	0	0	0	2	0	0	4	0	0
"544"	544	544	3	1	6	1	2	0	0	1	0	0	0	0	0	2	1	0	4	0	0
"545"	545	545	3	1	6	2	2	0	1	2	1	0	0	0	0	2	1	1	4	0	0
"546"	546	546	3	1	6	3	1	0	0	1	0	0	0	0	0	3	1	0	0	0	0
"547"	547	547	3	1	6	4	2	0	1	3	1	0	0	0	0	1	1	1	0	0	0
"548"	548	548	3	1	6	5	1	0	1	3	1	0	0	0	0	3	0	0	0	0	0
"549"	549	549	3	1	6	6	2	0	0	3	1	0	0	0	0	1	0	0	0	0	0
"550"	550	550	3	1	6	7	2	0	0	2	1	0	0	0	0	3	1	1	0	0	0
"551"	551	551	3	1	6	8	1	0	0	1	0	0	0	0	0	1	1	0	0	0	0
"552"	552	552	3	1	6	9	2	0	0	3	1	0	0	0	0	2	0	0	4	0	0
"553"	553	553	4	1	1	1	2	0	0	1	0	0	0	0	0	3	1	1	0	0	0
"554"	554	554	4	1	1	2	1	1	1	1	1	0	0	0	0	2	0	0	1	0	1
"555"	555	555	4	1	1	3	1	0	0	1	0	0	0	0	0	2	1	1	4	0	0
"556"	556	556	4	1	1	4	1	1	1	1	1	0	0	0	0	1	0	0	0	0	1
"557"	557	557	4	1	1	5	2	0	0	1	0	0	0	0	0	1	1	1	0	0	0
"558"	558	558	4	1	1	6	1	0	0	1	0	0	0	0	0	2	1	1	4	0	0
"559"	559	559	4	1	1	7	1	0	0	1	0	0	0	0	0	1	1	1	0	0	0
"560"	560	560	4	1	1	8	2	0	0	1	0	0	0	0	0	3	1	1	0	0	0
"561"	561	561	4	1	1	9	1	1	1	1	1	0	0	0	0	3	0	0	0	0	1
"562"	562	562	4	1	1	1	2	0	0	1	0	0	0	0	0	3	1	1	0	0	0
"563"	563	563	4	1	1	2	2	0	0	1	0	0	0	0	0	1	1	0	0	0	0
"564"	564	564	4	1	1	3	2	0	0	1	0	0	0	0	0	1	1	1	0	0	0
"565"	565	565	4	1	1	4	2	0	0	1	0	0	0	0	0	3	1	0	0	0	0
"566"	566	566	4	1	1	5	1	0	0	1	0	0	0	0	0	2	1	1	4	0	0
"567"	567	567	4	1	1	6	1	0	0	1	1	0	0	0	0	1	1	1	0	0	1
"568"	568	568	4	1	1	7	2	0	0	1	1	0	0	0	0	3	1	1	0	0	1
"569"	569	569	4	1	1	8	2	0	0	1	1	0	0	0	0	2	1	1	2	0	1
"570"	570	570	4	1	1	9	1	0	0	1	0	0	0	0	0	2	1	0	4	0	0
"571"	571	571	4	1	2	1	2	0	0	1	0	0	0	0	0	3	1	1	0	0	0
"572"	572	572	4	1	2	2	2	0	0	1	0	0	0	0	0	1	1	0	0	0	0
"573"	573	573	4	1	2	3	2	0	0	1	0	0	0	0	0	1	1	1	0	0	0
"574"	574	574	4	1	2	4	2	0	0	1	0	0	0	0	0	3	1	0	0	0	0
"575"	575	575	4	1	2	5	1	0	0	1	0	0	0	0	0	2	1	1	4	0	0
"576"	576	576	4	1	2	6	1	0	0	3	1	0	0	0	0	1	1	0	0	0	1
"577"	577	577	4	1	2	7	2	0	0	2	1	0	0	0	0	3	1	0	0	0	1
"578"	578	578	4	1	2	8	2	0	0	2	1	0	0	0	0	2	1	0	2	0	1
"579"	579	579	4	1	2	9	1	0	0	1	0	0	0	0	0	2	1	0	4	0	0
"580"	580	580	4	1	3	1	2	0	0	1	0	0	0	0	0	3	1	1	0	0	0
"581"	581	581	4	1	3	2	2	0	0	1	1	1	0	1	1	1	1	0	0	0	1
"582"	582	582	4	1	3	3	2	0	0	1	0	0	0	0	0	1	1	1	0	0	0
"583"	583	583	4	1	3	4	2	0	0	1	1	1	0	1	1	3	1	0	0	0	1
"584"	584	584	4	1	3	5	1	0	0	1	0	0	0	0	0	2	1	1	4	0	0
"585"	585	585	4	1	3	6	1	0	0	2	1	0	0	0	0	1	1	1	0	0	0
"586"	586	586	4	1	3	7	2	0	0	3	1	0	0	0	0	3	1	1	0	0	0
"587"	587	587	4	1	3	8	2	0	0	2	1	0	0	0	0	2	1	1	4	0	0
"588"	588	588	4	1	3	9	1	1	1	1	1	1	0	1	1	2	1	0	5	0	1
"589"	589	589	4	1	4	1	2	0	0	1	0	0	0	0	0	3	1	1	0	0	0
"590"	590	590	4	1	4	2	1	0	0	2	1	1	0	0	0	1	0	1	0	0	0
"591"	591	591	4	1	4	3	2	0	0	1	0	0	0	0	0	1	1	1	0	0	0
"592"	592	592	4	1	4	4	1	0	0	3	1	1	0	0	0	3	0	1	0	0	0
"593"	593	593	4	1	4	5	1	0	0	1	0	0	0	0	0	2	1	1	4	0	0
"594"	594	594	4	1	4	6	1	0	0	2	1	0	0	0	0	1	1	1	0	0	0
"595"	595	595	4	1	4	7	2	0	0	3	1	0	0	0	0	3	1	1	0	0	0
"596"	596	596	4	1	4	8	2	0	0	2	1	0	0	0	0	2	1	1	4	0	0
"597"	597	597	4	1	4	9	1	0	1	2	1	1	0	0	0	2	0	1	4	0	0
"598"	598	598	4	1	5	1	2	0	0	1	0	0	0	0	0	3	1	1	0	0	0
"599"	599	599	4	1	5	2	1	0	0	2	1	1	0	0	0	1	0	1	0	0	0
"600"	600	600	4	1	5	3	2	0	0	1	0	0	0	0	0	1	1	1	0	0	0
"601"	601	601	4	1	5	4	1	0	0	3	1	1	0	0	0	3	0	1	0	0	0
"602"	602	602	4	1	5	5	1	0	0	1	0	0	0	0	0	2	1	1	4	0	0
"603"	603	603	4	1	5	6	1	0	0	2	1	0	0	0	0	1	1	1	0	0	0
"604"	604	604	4	1	5	7	2	0	0	3	1	0	0	0	0	3	1	1	0	0	0
"605"	605	605	4	1	5	8	2	0	0	2	1	0	0	0	0	2	1	1	4	0	0
"606"	606	606	4	1	5	9	1	0	1	2	1	1	0	0	0	2	0	1	4	0	0
"607"	607	607	4	1	1	1	1	1	1	1	0	0	0	0	0	3	0	1	0	0	0
"608"	608	608	4	1	1	2	1	1	1	1	0	0	0	0	0	2	0	1	3	0	0
"609"	609	609	4	1	1	3	1	1	1	1	1	1	0	1	1	3	0	1	0	0	1
"610"	610	610	4	1	1	4	2	0	0	1	1	1	0	1	1	2	0	1	5	0	1
"611"	611	611	4	1	1	5	1	1	1	1	0	0	0	0	0	2	0	1	3	0	0
"612"	612	612	4	1	1	6	1	1	1	1	1	1	0	1	1	1	0	1	0	0	1
"613"	613	613	4	1	1	7	1	1	1	1	0	0	0	0	0	3	0	1	0	0	0
"614"	614	614	4	1	1	8	2	1	0	1	0	0	0	0	0	1	0	1	0	0	0
"615"	615	615	4	1	1	9	1	1	1	1	0	0	0	0	0	1	0	1	0	0	0
"616"	616	616	4	1	2	1	2	0	1	1	0	0	0	0	0	3	1	1	0	0	0
"617"	617	617	4	1	2	2	2	0	1	1	0	0	0	0	0	2	1	1	4	0	0
"618"	618	618	4	1	2	3	1	0	1	2	1	1	0	0	0	3	1	1	0	0	0
"619"	619	619	4	1	2	4	1	0	0	2	1	1	0	0	0	2	1	1	4	0	0
"620"	620	620	4	1	2	5	2	0	1	1	0	0	0	0	0	2	1	1	4	0	0
"621"	621	621	4	1	2	6	1	0	1	3	1	1	0	0	0	1	1	1	0	0	0
"622"	622	622	4	1	2	7	3	0	1	1	0	0	0	0	0	3	1	1	0	0	0
"623"	623	623	4	1	2	8	1	0	0	1	0	0	0	0	0	1	1	1	0	0	0
"624"	624	624	4	1	2	9	3	0	1	1	0	0	0	0	0	1	1	1	0	0	0
"625"	625	625	4	1	3	1	2	0	1	1	0	0	0	0	0	3	1	1	0	0	0
"626"	626	626	4	1	3	2	2	0	1	1	0	0	0	0	0	2	1	0	4	0	0
"627"	627	627	4	1	3	3	1	0	1	2	1	1	0	0	0	3	0	1	0	0	0
"628"	628	628	4	1	3	4	1	0	0	2	1	1	0	0	0	2	0	1	4	0	0
"629"	629	629	4	1	3	5	2	0	1	1	0	0	0	0	0	2	1	1	4	0	0
"630"	630	630	4	1	3	6	1	0	1	3	1	1	0	0	0	1	0	1	0	0	0
"631"	631	631	4	1	3	7	3	0	1	1	0	0	0	0	0	3	1	0	0	0	0
"632"	632	632	4	1	3	8	1	0	0	1	0	0	0	0	0	1	1	1	0	0	0
"633"	633	633	4	1	3	9	3	0	1	1	0	0	0	0	0	1	1	0	0	0	0
"634"	634	634	4	1	4	1	2	0	1	1	0	0	0	0	0	3	1	1	0	0	0
"635"	635	635	4	1	4	2	2	0	1	1	1	0	0	0	0	2	1	0	2	0	1
"636"	636	636	4	1	4	3	1	0	1	2	1	1	0	0	0	3	0	1	0	0	0
"637"	637	637	4	1	4	4	1	0	0	2	1	1	0	0	0	2	0	1	4	0	0
"638"	638	638	4	1	4	5	2	0	1	1	0	0	0	0	0	2	1	1	4	0	0
"639"	639	639	4	1	4	6	1	0	1	3	1	1	0	0	0	1	0	1	0	0	0
"640"	640	640	4	1	4	7	3	0	1	1	1	0	0	0	0	3	1	0	0	0	1
"641"	641	641	4	1	4	8	1	0	0	1	0	0	0	0	0	1	1	1	0	0	0
"642"	642	642	4	1	4	9	3	0	1	1	1	0	0	0	0	1	1	0	0	0	1
"643"	643	643	4	1	1	1	2	0	0	1	1	0	0	0	0	2	1	0	2	0	1
"644"	644	644	4	1	1	2	1	0	0	1	0	0	0	0	0	3	1	1	0	0	0
"645"	645	645	4	1	1	3	2	0	0	1	0	0	0	0	0	2	1	1	4	0	0
"646"	646	646	4	1	1	4	1	0	0	1	0	0	0	0	0	1	1	1	0	0	0
"647"	647	647	4	1	1	5	2	0	0	1	1	0	0	0	0	1	1	0	0	0	1
"648"	648	648	4	1	1	6	1	0	0	1	1	0	0	0	0	3	1	0	0	0	1
"649"	649	649	4	1	1	7	2	0	0	1	0	0	0	0	0	3	1	1	0	0	0
"650"	650	650	4	1	1	8	2	0	0	1	0	0	0	0	0	1	1	1	0	0	0
"651"	651	651	4	1	1	9	2	0	0	1	0	0	0	0	0	2	1	1	4	0	0
"652"	652	652	4	1	2	1	2	0	0	3	1	0	0	0	0	2	1	0	2	0	1
"653"	653	653	4	1	2	2	1	0	0	1	0	0	0	0	0	3	1	1	0	0	0
"654"	654	654	4	1	2	3	2	0	0	1	0	0	0	0	0	2	1	1	4	0	0
"655"	655	655	4	1	2	4	1	0	0	1	0	0	0	0	0	1	1	1	0	0	0
"656"	656	656	4	1	2	5	2	0	0	3	1	0	0	0	0	1	1	0	0	0	1
"657"	657	657	4	1	2	6	1	0	0	3	1	0	0	0	0	3	1	0	0	0	1
"658"	658	658	4	1	2	7	2	0	0	1	0	0	0	0	0	3	1	1	0	0	0
"659"	659	659	4	1	2	8	2	0	0	1	0	0	0	0	0	1	1	1	0	0	0
"660"	660	660	4	1	2	9	2	0	0	1	0	0	0	0	0	2	1	1	4	0	0
"661"	661	661	4	1	3	1	2	0	0	2	1	0	0	0	0	2	1	1	4	0	0
"662"	662	662	4	1	3	2	1	0	0	1	0	0	0	0	0	3	1	1	0	0	0
"663"	663	663	4	1	3	3	2	0	0	1	0	0	0	0	0	2	1	1	4	0	0
"664"	664	664	4	1	3	4	1	0	0	1	0	0	0	0	0	1	1	1	0	0	0
"665"	665	665	4	1	3	5	2	0	0	2	1	0	0	0	0	1	1	1	0	0	0
"666"	666	666	4	1	3	6	1	0	0	3	1	0	0	0	0	3	1	1	0	0	0
"667"	667	667	4	1	3	7	2	0	0	1	0	0	0	0	0	3	1	0	0	0	0
"668"	668	668	4	1	3	8	2	0	0	1	0	0	0	0	0	1	1	0	0	0	0
"669"	669	669	4	1	3	9	2	0	0	1	0	0	0	0	0	2	1	0	4	0	0
"670"	670	670	4	1	4	1	2	0	0	2	1	0	0	0	0	2	1	1	4	0	0
"671"	671	671	4	1	4	2	1	0	0	1	0	0	0	0	0	3	1	1	0	0	0
"672"	672	672	4	1	4	3	2	0	0	1	0	0	0	0	0	2	1	1	4	0	0
"673"	673	673	4	1	4	4	1	0	0	1	0	0	0	0	0	1	1	1	0	0	0
"674"	674	674	4	1	4	5	2	0	0	2	1	0	0	0	0	1	1	1	0	0	0
"675"	675	675	4	1	4	6	1	0	0	3	1	0	0	0	0	3	1	1	0	0	0
"676"	676	676	4	1	4	7	2	0	0	1	0	0	0	0	0	3	1	1	0	0	0
"677"	677	677	4	1	4	8	2	0	0	1	0	0	0	0	0	1	1	1	0	0	0
"678"	678	678	4	1	4	9	2	0	0	1	0	0	0	0	0	2	1	1	4	0	0
"679"	679	679	4	1	5	1	2	0	0	2	1	0	0	0	0	2	1	1	4	0	0
"680"	680	680	4	1	5	2	1	0	0	1	0	0	0	0	0	3	1	1	0	0	0
"681"	681	681	4	1	5	3	2	0	0	1	0	0	0	0	0	2	1	1	4	0	0
"682"	682	682	4	1	5	4	1	0	0	1	0	0	0	0	0	1	1	1	0	0	0
"683"	683	683	4	1	5	5	2	0	0	2	1	0	0	0	0	1	1	1	0	0	0
"684"	684	684	4	1	5	6	1	0	0	3	1	0	0	0	0	3	1	1	0	0	0
"685"	685	685	4	1	5	7	2	0	0	1	0	0	0	0	0	3	1	0	0	0	0
"686"	686	686	4	1	5	8	2	0	0	1	0	0	0	0	0	1	1	0	0	0	0
"687"	687	687	4	1	5	9	2	0	0	1	0	0	0	0	0	2	1	0	4	0	0
"688"	688	688	4	1	6	1	2	0	0	2	1	0	0	0	0	2	1	1	4	0	0
"689"	689	689	4	1	6	2	1	0	0	1	0	0	0	0	0	3	1	1	0	0	0
"690"	690	690	4	1	6	3	2	0	0	1	0	0	0	0	0	2	1	1	4	0	0
"691"	691	691	4	1	6	4	1	0	0	1	0	0	0	0	0	1	1	1	0	0	0
"692"	692	692	4	1	6	5	2	0	0	2	1	0	0	0	0	1	1	1	0	0	0
"693"	693	693	4	1	6	6	1	0	0	3	1	0	0	0	0	3	1	1	0	0	0
"694"	694	694	4	1	6	7	2	0	0	1	0	0	0	0	0	3	1	0	0	0	0
"695"	695	695	4	1	6	8	2	0	0	1	0	0	0	0	0	1	1	0	0	0	0
"696"	696	696	4	1	6	9	2	0	0	1	0	0	0	0	0	2	1	0	4	0	0
"697"	697	697	4	1	7	1	2	0	0	2	1	0	0	0	0	2	1	1	4	0	0
"698"	698	698	4	1	7	2	1	0	0	1	0	0	0	0	0	3	1	1	0	0	0
"699"	699	699	4	1	7	3	2	0	0	1	0	0	0	0	0	2	1	1	4	0	0
"700"	700	700	4	1	7	4	1	0	0	1	0	0	0	0	0	1	1	1	0	0	0
"701"	701	701	4	1	7	5	2	0	0	2	1	0	0	0	0	1	1	1	0	0	0
"702"	702	702	4	1	7	6	1	0	0	3	1	0	0	0	0	3	1	1	0	0	0
"703"	703	703	4	1	7	7	2	0	0	1	0	0	0	0	0	3	1	0	0	0	0
"704"	704	704	4	1	7	8	2	0	0	1	0	0	0	0	0	1	1	0	0	0	0
"705"	705	705	4	1	7	9	2	0	0	1	0	0	0	0	0	2	1	0	4	0	0
"706"	706	706	4	1	8	1	2	0	0	2	1	0	0	0	0	2	1	1	4	0	0
"707"	707	707	4	1	8	2	1	0	0	1	0	0	0	0	0	3	1	1	0	0	0
"708"	708	708	4	1	8	3	2	0	0	1	0	0	0	0	0	2	1	1	4	0	0
"709"	709	709	4	1	8	4	1	0	0	1	0	0	0	0	0	1	1	1	0	0	0
"710"	710	710	4	1	8	5	2	0	0	2	1	0	0	0	0	1	1	1	0	0	0
"711"	711	711	4	1	8	6	1	0	0	3	1	0	0	0	0	3	1	1	0	0	0
"712"	712	712	4	1	8	7	2	0	0	1	0	0	0	0	0	3	1	0	0	0	0
"713"	713	713	4	1	8	8	2	0	0	1	0	0	0	0	0	1	1	0	0	0	0
"714"	714	714	4	1	8	9	2	0	0	1	0	0	0	0	0	2	1	0	4	0	0
"715"	715	715	4	1	9	1	2	0	0	2	1	0	0	0	0	2	1	1	4	0	0
"716"	716	716	4	1	9	2	1	0	0	1	0	0	0	0	0	3	1	0	0	0	0
"717"	717	717	4	1	9	3	2	0	0	1	0	0	0	0	0	2	1	0	4	0	0
"718"	718	718	4	1	9	4	1	0	0	1	0	0	0	0	0	1	1	0	0	0	0
"719"	719	719	4	1	9	5	2	0	0	2	1	0	0	0	0	1	1	1	0	0	0
"720"	720	720	4	1	9	6	1	0	0	3	1	0	0	0	0	3	1	1	0	0	0
"721"	721	721	4	1	9	7	2	0	0	1	0	0	0	0	0	3	1	0	0	0	0
"722"	722	722	4	1	9	8	2	0	0	1	0	0	0	0	0	1	1	0	0	0	0
"723"	723	723	4	1	9	9	2	0	0	1	0	0	0	0	0	2	1	0	4	0	0
"724"	724	724	4	1	10	1	2	0	0	2	1	0	0	0	0	2	1	1	4	0	0
"725"	725	725	4	1	10	2	1	0	0	1	0	0	0	0	0	3	1	1	0	0	0
"726"	726	726	4	1	10	3	2	0	0	1	0	0	0	0	0	2	1	1	4	0	0
"727"	727	727	4	1	10	4	1	0	0	1	0	0	0	0	0	1	1	1	0	0	0
"728"	728	728	4	1	10	5	2	0	0	2	1	0	0	0	0	1	1	1	0	0	0
"729"	729	729	4	1	10	6	1	0	0	3	1	0	0	0	0	3	1	1	0	0	0
"730"	730	730	4	1	10	7	2	0	0	1	0	0	0	0	0	3	1	0	0	0	0
"731"	731	731	4	1	10	8	2	0	0	1	0	0	0	0	0	1	1	0	0	0	0
"732"	732	732	4	1	10	9	2	0	0	1	0	0	0	0	0	2	1	0	4	0	0
"733"	733	733	5	0	1	1	2	0	0	1	0	0	0	0	0	3	1	1	0	0	0
"734"	734	734	5	0	1	2	2	0	0	1	0	0	0	0	0	1	1	1	0	0	0
"735"	735	735	5	0	1	3	1	0	0	1	0	0	0	0	0	1	1	1	0	0	0
"736"	736	736	5	0	1	4	2	0	0	1	1	1	0	1	1	2	1	1	5	0	1
"737"	737	737	5	0	1	5	1	1	1	1	0	0	0	0	0	3	0	1	0	0	0
"738"	738	738	5	0	1	6	2	0	0	1	0	0	0	0	0	3	1	1	0	0	0
"739"	739	739	5	0	1	7	2	0	0	1	1	1	0	1	1	1	1	1	0	0	1
"740"	740	740	5	0	1	8	2	0	0	1	0	0	0	0	0	1	1	1	0	0	0
"741"	741	741	5	0	1	9	2	0	0	2	0	0	0	0	0	2	1	1	4	0	0
"742"	742	742	5	0	1	10	1	1	1	1	0	0	0	0	0	1	0	1	0	0	0
"743"	743	743	5	0	1	11	2	0	0	1	1	1	0	1	1	3	1	1	0	0	1
"744"	744	744	5	0	1	12	2	0	0	2	0	0	0	0	0	2	1	1	4	0	0
"745"	745	745	5	0	1	13	2	0	0	1	0	0	0	0	0	3	1	1	0	0	0
"746"	746	746	5	0	1	14	1	0	0	1	0	0	0	0	0	3	1	1	0	0	0
"747"	747	747	5	0	1	15	1	0	0	1	0	0	0	0	0	1	1	1	0	0	0
"748"	748	748	5	0	1	16	2	0	0	1	0	0	0	0	0	2	1	1	4	0	0
"749"	749	749	5	0	1	17	1	1	1	1	0	0	0	0	0	2	0	1	3	0	0
"750"	750	750	5	0	1	18	1	0	0	1	0	0	0	0	0	2	1	1	4	0	0
"751"	751	751	5	0	2	1	2	0	0	1	0	0	0	0	0	3	1	1	0	0	0
"752"	752	752	5	0	2	2	2	0	0	1	0	0	0	0	0	1	1	1	0	0	0
"753"	753	753	5	0	2	3	1	0	0	1	0	0	0	0	0	1	1	1	0	0	0
"754"	754	754	5	0	2	4	1	0	0	3	1	1	0	0	0	2	1	0	4	0	0
"755"	755	755	5	0	2	5	2	1	1	1	1	1	0	1	1	3	1	1	0	0	1
"756"	756	756	5	0	2	6	2	0	0	1	0	0	0	0	0	3	1	1	0	0	0
"757"	757	757	5	0	2	7	1	0	0	2	1	1	0	0	0	1	1	0	0	0	0
"758"	758	758	5	0	2	8	2	0	0	1	0	0	0	0	0	1	1	1	0	0	0
"759"	759	759	5	0	2	9	2	0	0	2	0	0	0	0	0	2	1	1	4	0	0
"760"	760	760	5	0	2	10	2	1	1	1	1	1	0	1	1	1	1	1	0	0	1
"761"	761	761	5	0	2	11	1	0	0	2	1	1	0	0	0	3	1	0	0	0	0
"762"	762	762	5	0	2	12	2	0	0	2	0	0	0	0	0	2	1	1	4	0	0
"763"	763	763	5	0	2	13	2	0	0	1	0	0	0	0	0	3	1	1	0	0	0
"764"	764	764	5	0	2	14	1	0	0	1	0	0	0	0	0	3	1	1	0	0	0
"765"	765	765	5	0	2	15	1	0	0	1	0	0	0	0	0	1	1	1	0	0	0
"766"	766	766	5	0	2	16	2	0	0	1	0	0	0	0	0	2	1	1	4	0	0
"767"	767	767	5	0	2	17	2	1	1	1	1	1	0	1	1	2	1	1	5	0	1
"768"	768	768	5	0	2	18	1	0	0	1	0	0	0	0	0	2	1	1	4	0	0
"769"	769	769	5	0	3	1	2	0	0	1	0	0	0	0	0	3	1	1	0	0	0
"770"	770	770	5	0	3	2	2	0	0	1	0	0	0	0	0	1	1	1	0	0	0
"771"	771	771	5	0	3	3	1	0	0	1	0	0	0	0	0	1	1	1	0	0	0
"772"	772	772	5	0	3	4	1	0	0	3	1	1	0	0	0	2	0	0	4	0	0
"773"	773	773	5	0	3	5	1	1	1	2	1	1	1	1	1	3	1	1	0	0	1
"774"	774	774	5	0	3	6	2	0	0	1	0	0	0	0	0	3	1	1	0	0	0
"775"	775	775	5	0	3	7	1	0	0	2	1	1	0	0	0	1	0	0	0	0	0
"776"	776	776	5	0	3	8	2	0	0	1	0	0	0	0	0	1	1	1	0	0	0
"777"	777	777	5	0	3	9	2	0	0	2	0	0	0	0	0	2	1	1	4	0	0
"778"	778	778	5	0	3	10	1	1	1	3	1	1	1	1	1	1	1	1	0	0	1
"779"	779	779	5	0	3	11	1	0	0	2	1	1	0	0	0	3	0	0	0	0	0
"780"	780	780	5	0	3	12	2	0	0	2	0	0	0	0	0	2	1	1	4	0	0
"781"	781	781	5	0	3	13	2	0	0	1	0	0	0	0	0	3	1	1	0	0	0
"782"	782	782	5	0	3	14	1	0	0	1	0	0	0	0	0	3	1	1	0	0	0
"783"	783	783	5	0	3	15	1	0	0	1	0	0	0	0	0	1	1	1	0	0	0
"784"	784	784	5	0	3	16	2	0	0	1	0	0	0	0	0	2	1	1	4	0	0
"785"	785	785	5	0	3	17	1	1	1	2	1	1	1	1	1	2	1	1	5	0	1
"786"	786	786	5	0	3	18	1	0	0	1	0	0	0	0	0	2	1	1	4	0	0
"787"	787	787	5	0	1	1	2	0	0	1	0	0	0	0	0	1	1	1	0	0	0
"788"	788	788	5	0	1	2	1	1	1	1	1	1	0	1	1	2	0	1	5	0	1
"789"	789	789	5	0	1	3	2	0	0	1	0	0	0	0	0	1	1	1	0	0	0
"790"	790	790	5	0	1	4	2	0	0	1	0	0	0	0	0	2	1	1	4	0	0
"791"	791	791	5	0	1	5	2	0	0	1	1	1	0	1	1	3	0	1	0	0	1
"792"	792	792	5	0	1	6	1	0	0	1	1	0	0	0	0	1	1	0	0	0	1
"793"	793	793	5	0	1	7	2	0	0	1	0	0	0	0	0	1	1	1	0	0	0
"794"	794	794	5	0	1	8	2	0	0	1	0	0	0	0	0	3	1	1	0	0	0
"795"	795	795	5	0	1	9	2	0	0	1	0	0	0	0	0	2	1	1	4	0	0
"796"	796	796	5	0	1	10	1	0	0	1	1	0	0	0	0	3	1	0	0	0	1
"797"	797	797	5	0	1	11	1	0	0	1	0	0	0	0	0	2	1	1	4	0	0
"798"	798	798	5	0	1	12	2	0	0	1	0	0	0	0	0	3	1	1	0	0	0
"799"	799	799	5	0	1	13	2	0	0	1	0	0	0	0	0	2	1	1	4	0	0
"800"	800	800	5	0	1	14	2	0	0	1	0	0	0	0	0	3	1	1	0	0	0
"801"	801	801	5	0	1	15	1	1	1	1	1	1	0	1	1	1	0	1	0	0	1
"802"	802	802	5	0	1	16	1	0	0	1	1	0	0	0	0	2	1	0	2	0	1
"803"	803	803	5	0	1	17	2	0	0	1	0	0	0	0	0	1	1	1	0	0	0
"804"	804	804	5	0	1	18	2	0	0	1	0	0	0	0	0	3	1	1	0	0	0
"805"	805	805	5	0	2	1	2	0	0	1	0	0	0	0	0	1	1	1	0	0	0
"806"	806	806	5	0	2	2	1	0	1	3	1	1	0	0	0	2	1	0	2	0	1
"807"	807	807	5	0	2	3	2	0	0	1	0	0	0	0	0	1	1	1	0	0	0
"808"	808	808	5	0	2	4	2	0	0	1	0	0	0	0	0	2	1	1	4	0	0
"809"	809	809	5	0	2	5	1	0	0	2	1	1	0	0	0	3	1	0	0	0	1
"810"	810	810	5	0	2	6	1	0	0	2	1	0	0	0	0	1	1	1	0	0	0
"811"	811	811	5	0	2	7	2	0	0	1	0	0	0	0	0	1	1	1	0	0	0
"812"	812	812	5	0	2	8	2	0	0	1	0	0	0	0	0	3	1	1	0	0	0
"813"	813	813	5	0	2	9	2	0	0	1	0	0	0	0	0	2	1	1	4	0	0
"814"	814	814	5	0	2	10	1	0	0	2	1	0	0	0	0	3	1	1	0	0	0
"815"	815	815	5	0	2	11	1	0	0	1	0	0	0	0	0	2	1	1	4	0	0
"816"	816	816	5	0	2	12	2	0	0	1	0	0	0	0	0	3	1	1	0	0	0
"817"	817	817	5	0	2	13	2	0	0	1	0	0	0	0	0	2	1	1	4	0	0
"818"	818	818	5	0	2	14	2	0	0	1	0	0	0	0	0	3	1	1	0	0	0
"819"	819	819	5	0	2	15	1	0	1	2	1	1	0	0	0	1	1	0	0	0	1
"820"	820	820	5	0	2	16	1	0	0	2	1	0	0	0	0	2	1	1	4	0	0
"821"	821	821	5	0	2	17	2	0	0	1	0	0	0	0	0	1	1	1	0	0	0
"822"	822	822	5	0	2	18	2	0	0	1	0	0	0	0	0	3	1	1	0	0	0
"823"	823	823	5	0	3	1	2	0	0	1	0	0	0	0	0	1	1	1	0	0	0
"824"	824	824	5	0	3	2	1	0	1	2	1	1	0	0	0	2	1	1	4	0	0
"825"	825	825	5	0	3	3	2	0	0	1	0	0	0	0	0	1	1	1	0	0	0
"826"	826	826	5	0	3	4	2	0	0	1	0	0	0	0	0	2	1	1	4	0	0
"827"	827	827	5	0	3	5	1	0	0	3	1	1	0	0	0	3	1	1	0	0	0
"828"	828	828	5	0	3	6	1	0	0	2	1	0	0	0	0	1	1	1	0	0	0
"829"	829	829	5	0	3	7	2	0	0	1	0	0	0	0	0	1	1	1	0	0	0
"830"	830	830	5	0	3	8	2	0	0	1	0	0	0	0	0	3	1	1	0	0	0
"831"	831	831	5	0	3	9	2	0	0	1	0	0	0	0	0	2	1	1	4	0	0
"832"	832	832	5	0	3	10	1	0	0	2	1	0	0	0	0	3	1	1	0	0	0
"833"	833	833	5	0	3	11	1	0	0	1	0	0	0	0	0	2	1	1	4	0	0
"834"	834	834	5	0	3	12	2	0	0	1	0	0	0	0	0	3	1	1	0	0	0
"835"	835	835	5	0	3	13	2	0	0	1	0	0	0	0	0	2	1	1	4	0	0
"836"	836	836	5	0	3	14	2	0	0	1	0	0	0	0	0	3	1	1	0	0	0
"837"	837	837	5	0	3	15	1	0	1	3	1	1	0	0	0	1	1	1	0	0	0
"838"	838	838	5	0	3	16	1	0	0	2	1	0	0	0	0	2	1	1	4	0	0
"839"	839	839	5	0	3	17	2	0	0	1	0	0	0	0	0	1	1	1	0	0	0
"840"	840	840	5	0	3	18	2	0	0	1	0	0	0	0	0	3	1	1	0	0	0
"841"	841	841	6	0	1	1	2	0	0	1	0	0	0	0	0	1	1	0	0	0	0
"842"	842	842	6	0	1	2	1	1	1	1	1	1	0	1	1	2	0	1	5	0	1
"843"	843	843	6	0	1	3	2	0	0	1	1	1	0	1	1	1	0	1	0	0	1
"844"	844	844	6	0	1	4	1	0	0	1	0	0	0	0	0	1	1	0	0	0	0
"845"	845	845	6	0	1	5	1	1	1	1	1	1	0	1	1	3	0	1	0	0	1
"846"	846	846	6	0	1	6	2	0	0	1	1	0	0	0	0	1	1	0	0	0	1
"847"	847	847	6	0	1	7	1	0	0	1	0	0	0	0	0	2	1	0	4	0	0
"848"	848	848	6	0	1	8	2	0	0	1	0	0	0	0	0	2	1	0	4	0	0
"849"	849	849	6	0	1	9	1	0	0	1	0	0	0	0	0	3	1	0	0	0	0
"850"	850	850	6	0	1	10	2	0	0	1	0	0	0	0	0	3	1	1	0	0	0
"851"	851	851	6	0	1	11	1	0	0	1	1	0	0	0	0	3	1	0	0	0	1
"852"	852	852	6	0	1	12	2	0	0	1	0	0	0	0	0	1	1	1	0	0	0
"853"	853	853	6	0	1	13	1	0	0	1	0	0	0	0	0	2	1	1	4	0	0
"854"	854	854	6	0	1	14	1	0	0	1	0	0	0	0	0	1	1	0	0	0	0
"855"	855	855	6	0	1	15	1	0	0	1	0	0	0	0	0	2	1	0	4	0	0
"856"	856	856	6	0	1	16	2	0	0	1	0	0	0	0	0	3	1	0	0	0	0
"857"	857	857	6	0	1	17	2	0	0	1	1	0	0	0	0	3	1	0	0	0	1
"858"	858	858	6	0	1	18	1	0	0	1	1	0	0	0	0	1	1	0	0	0	1
"859"	859	859	6	0	1	19	2	0	0	1	1	0	0	0	0	2	1	0	2	0	1
"860"	860	860	6	0	1	20	1	0	0	1	1	0	0	0	0	2	1	0	2	0	1
"861"	861	861	6	0	1	21	1	0	0	1	0	0	0	0	0	3	1	0	0	0	0
"862"	862	862	6	0	2	1	2	0	0	1	1	1	0	1	1	1	1	1	0	0	1
"863"	863	863	6	0	2	2	1	0	1	3	1	1	0	0	0	2	1	0	2	0	1
"864"	864	864	6	0	2	3	1	0	0	3	1	1	0	0	0	1	1	0	0	0	1
"865"	865	865	6	0	2	4	1	0	0	1	0	0	0	0	0	1	1	0	0	0	0
"866"	866	866	6	0	2	5	1	0	1	3	1	1	0	0	0	3	1	0	0	0	1
"867"	867	867	6	0	2	6	2	0	0	2	1	0	0	0	0	1	1	1	0	0	0
"868"	868	868	6	0	2	7	1	0	0	1	0	0	0	0	0	2	1	0	4	0	0
"869"	869	869	6	0	2	8	2	0	0	1	1	0	0	0	0	2	1	0	2	0	1
"870"	870	870	6	0	2	9	1	0	0	1	1	0	0	0	0	3	1	0	0	0	1
"871"	871	871	6	0	2	10	2	0	0	1	0	0	0	0	0	3	1	1	0	0	0
"872"	872	872	6	0	2	11	1	0	0	2	1	0	0	0	0	3	1	1	0	0	0
"873"	873	873	6	0	2	12	2	0	0	1	0	0	0	0	0	1	1	1	0	0	0
"874"	874	874	6	0	2	13	1	0	0	1	0	0	0	0	0	2	1	1	4	0	0
"875"	875	875	6	0	2	14	1	0	0	1	1	0	0	0	0	1	1	0	0	0	1
"876"	876	876	6	0	2	15	1	1	1	1	1	1	0	1	1	2	1	1	5	0	1
"877"	877	877	6	0	2	16	2	0	0	1	1	1	0	1	1	3	1	1	0	0	1
"878"	878	878	6	0	2	17	2	0	0	2	1	0	0	0	0	3	1	1	0	0	0
"879"	879	879	6	0	2	18	1	0	0	2	1	0	0	0	0	1	1	1	0	0	0
"880"	880	880	6	0	2	19	2	0	0	3	1	0	0	0	0	2	1	1	4	0	0
"881"	881	881	6	0	2	20	1	0	0	3	1	0	0	0	0	2	1	1	4	0	0
"882"	882	882	6	0	2	21	1	0	0	1	0	0	0	0	0	3	1	0	0	0	0
"883"	883	883	6	0	3	1	1	1	0	3	1	1	1	0	0	1	0	0	0	0	1
"884"	884	884	6	0	3	2	1	1	1	2	1	1	1	1	1	2	0	1	5	0	1
"885"	885	885	6	0	3	3	1	1	0	3	1	1	1	1	1	1	0	1	0	0	1
"886"	886	886	6	0	3	4	1	0	0	1	0	0	0	0	0	1	1	0	0	0	0
"887"	887	887	6	0	3	5	1	1	1	3	1	1	1	1	1	3	0	1	0	0	1
"888"	888	888	6	0	3	6	2	0	0	2	1	0	0	0	0	1	1	1	0	0	0
"889"	889	889	6	0	3	7	1	0	0	1	0	0	0	0	0	2	1	0	4	0	0
"890"	890	890	6	0	3	8	2	0	0	2	1	0	0	1	0	2	1	1	5	0	1
"891"	891	891	6	0	3	9	1	1	1	3	1	0	0	1	1	3	1	1	0	0	1
"892"	892	892	6	0	3	10	2	0	0	1	1	0	0	0	0	3	1	0	0	0	1
"893"	893	893	6	0	3	11	1	0	0	2	1	0	0	0	0	3	1	1	0	0	0
"894"	894	894	6	0	3	12	2	0	0	1	1	0	0	0	0	1	1	0	0	0	1
"895"	895	895	6	0	3	13	1	0	0	1	1	0	0	0	0	2	1	0	2	0	1
"896"	896	896	6	0	3	14	1	1	1	2	1	0	0	1	1	1	1	1	0	0	1
"897"	897	897	6	0	3	15	1	1	1	3	1	1	1	0	0	2	0	0	1	0	1
"898"	898	898	6	0	3	16	1	1	0	2	1	1	1	0	0	3	0	0	0	0	1
"899"	899	899	6	0	3	17	2	0	0	2	1	0	0	0	0	3	1	1	0	0	0
"900"	900	900	6	0	3	18	1	0	0	2	1	0	0	0	0	1	1	1	0	0	0
"901"	901	901	6	0	3	19	2	0	0	3	1	0	0	0	0	2	1	1	4	0	0
"902"	902	902	6	0	3	20	1	0	0	3	1	0	0	0	0	2	1	1	4	0	0
"903"	903	903	6	0	3	21	1	0	0	1	0	0	0	0	0	3	1	0	0	0	0
"904"	904	904	6	0	4	1	1	1	1	2	1	1	1	0	0	1	0	1	0	0	0
"905"	905	905	6	0	4	2	2	0	1	3	1	1	1	0	0	2	1	0	2	0	1
"906"	906	906	6	0	4	3	3	0	0	3	1	1	1	0	0	1	1	0	0	0	1
"907"	907	907	6	0	4	4	1	0	0	1	0	0	0	0	0	1	1	0	0	0	0
"908"	908	908	6	0	4	5	3	0	1	3	1	1	1	0	0	3	1	0	0	0	1
"909"	909	909	6	0	4	6	2	0	0	2	1	0	0	0	0	1	1	1	0	0	0
"910"	910	910	6	0	4	7	1	0	0	1	0	0	0	0	0	2	1	0	4	0	0
"911"	911	911	6	0	4	8	2	0	0	2	1	0	0	0	0	2	1	1	4	0	0
"912"	912	912	6	0	4	9	3	0	1	3	1	0	0	0	0	3	1	1	0	0	0
"913"	913	913	6	0	4	10	2	0	0	3	1	0	0	0	0	3	1	0	0	0	0
"914"	914	914	6	0	4	11	1	0	0	2	1	0	0	0	0	3	1	1	0	0	0
"915"	915	915	6	0	4	12	2	0	0	2	1	0	0	0	0	1	1	0	0	0	0
"916"	916	916	6	0	4	13	1	0	0	2	1	0	0	0	0	2	1	0	4	0	0
"917"	917	917	6	0	4	14	2	0	1	2	1	0	0	0	0	1	1	1	0	0	0
"918"	918	918	6	0	4	15	3	1	1	2	1	1	1	0	0	2	0	1	3	0	0
"919"	919	919	6	0	4	16	2	1	0	2	1	1	1	0	0	3	0	1	0	0	0
"920"	920	920	6	0	4	17	2	0	0	2	1	0	0	0	0	3	1	1	0	0	0
"921"	921	921	6	0	4	18	1	0	0	2	1	0	0	0	0	1	1	1	0	0	0
"922"	922	922	6	0	4	19	2	0	0	3	1	0	0	0	0	2	1	1	4	0	0
"923"	923	923	6	0	4	20	1	0	0	3	1	0	0	0	0	2	1	1	4	0	0
"924"	924	924	6	0	4	21	1	0	0	1	0	0	0	0	0	3	1	0	0	0	0
"925"	925	925	6	0	5	1	2	0	1	2	1	1	1	0	0	1	1	1	0	0	0
"926"	926	926	6	0	5	2	2	0	1	3	1	1	1	0	0	2	1	0	2	0	1
"927"	927	927	6	0	5	3	3	0	0	3	1	1	1	0	0	1	1	0	0	0	1
"928"	928	928	6	0	5	4	1	0	0	1	1	0	0	0	0	1	1	0	0	0	1
"929"	929	929	6	0	5	5	3	0	1	2	1	1	1	0	0	3	1	0	0	0	1
"930"	930	930	6	0	5	6	2	0	0	2	1	0	0	0	0	1	1	1	0	0	0
"931"	931	931	6	0	5	7	1	0	0	1	1	0	0	0	0	2	1	0	2	0	1
"932"	932	932	6	0	5	8	2	0	0	2	1	0	0	0	0	2	1	1	4	0	0
"933"	933	933	6	0	5	9	3	0	1	3	1	0	0	0	0	3	1	1	0	0	0
"934"	934	934	6	0	5	10	2	0	0	3	1	0	0	0	0	3	1	0	0	0	0
"935"	935	935	6	0	5	11	1	0	0	2	1	0	0	0	0	3	1	1	0	0	0
"936"	936	936	6	0	5	12	2	0	0	2	1	0	0	0	0	1	1	0	0	0	0
"937"	937	937	6	0	5	13	1	0	0	2	1	0	0	0	0	2	1	0	4	0	0
"938"	938	938	6	0	5	14	2	0	1	2	1	0	0	0	0	1	1	1	0	0	0
"939"	939	939	6	0	5	15	2	0	1	2	1	1	1	0	0	2	1	1	4	0	0
"940"	940	940	6	0	5	16	2	0	0	2	1	1	1	0	0	3	1	1	0	0	0
"941"	941	941	6	0	5	17	2	0	0	2	1	0	0	0	0	3	1	1	0	0	0
"942"	942	942	6	0	5	18	1	0	0	2	1	0	0	0	0	1	1	1	0	0	0
"943"	943	943	6	0	5	19	2	0	0	3	1	0	0	0	0	2	1	1	4	0	0
"944"	944	944	6	0	5	20	1	0	0	3	1	0	0	0	0	2	1	1	4	0	0
"945"	945	945	6	0	5	21	1	0	0	1	1	0	0	0	0	3	1	0	0	0	1
"946"	946	946	6	0	6	1	2	0	1	2	1	1	1	0	0	1	1	1	0	0	0
"947"	947	947	6	0	6	2	2	0	1	3	1	1	1	0	0	2	1	0	2	0	1
"948"	948	948	6	0	6	3	3	0	0	3	1	1	1	0	0	1	1	0	0	0	1
"949"	949	949	6	0	6	4	1	0	0	3	1	0	0	0	0	1	1	0	0	0	0
"950"	950	950	6	0	6	5	3	0	1	3	1	1	1	0	0	3	1	0	0	0	1
"951"	951	951	6	0	6	6	2	0	0	2	1	0	0	0	0	1	1	1	0	0	0
"952"	952	952	6	0	6	7	1	0	0	3	1	0	0	0	0	2	1	0	4	0	0
"953"	953	953	6	0	6	8	2	0	0	2	1	0	0	0	0	2	1	1	4	0	0
"954"	954	954	6	0	6	9	3	0	1	3	1	0	0	0	0	3	1	1	0	0	0
"955"	955	955	6	0	6	10	2	0	0	3	1	0	0	0	0	3	1	0	0	0	1
"956"	956	956	6	0	6	11	1	0	0	2	1	0	0	0	0	3	1	1	0	0	0
"957"	957	957	6	0	6	12	2	0	0	2	1	0	0	0	0	1	1	0	0	0	1
"958"	958	958	6	0	6	13	1	0	0	2	1	0	0	0	0	2	1	0	2	0	1
"959"	959	959	6	0	6	14	2	0	1	2	1	0	0	0	0	1	1	1	0	0	0
"960"	960	960	6	0	6	15	2	0	1	2	1	1	1	0	0	2	1	1	4	0	0
"961"	961	961	6	0	6	16	2	0	0	2	1	1	1	0	0	3	1	1	0	0	0
"962"	962	962	6	0	6	17	2	0	0	2	1	0	0	0	0	3	1	1	0	0	0
"963"	963	963	6	0	6	18	1	0	0	2	1	0	0	0	0	1	1	1	0	0	0
"964"	964	964	6	0	6	19	2	0	0	3	1	0	0	0	0	2	1	1	4	0	0
"965"	965	965	6	0	6	20	1	0	0	3	1	0	0	0	0	2	1	1	4	0	0
"966"	966	966	6	0	6	21	1	0	0	2	1	0	0	0	0	3	1	0	0	0	0
"967"	967	967	6	0	7	1	2	0	1	2	1	1	1	1	0	1	1	1	0	0	0
"968"	968	968	6	0	7	2	2	0	1	3	1	1	1	0	0	2	1	0	2	0	1
"969"	969	969	6	0	7	3	3	0	0	3	1	1	1	0	0	1	1	0	0	0	1
"970"	970	970	6	0	7	4	1	0	0	3	1	0	0	0	0	1	1	0	0	0	0
"971"	971	971	6	0	7	5	3	0	1	2	1	1	1	0	0	3	1	0	0	0	1
"972"	972	972	6	0	7	6	2	0	0	2	1	0	0	0	0	1	1	1	0	0	0
"973"	973	973	6	0	7	7	1	0	0	3	1	0	0	0	0	2	1	0	4	0	0
"974"	974	974	6	0	7	8	2	0	0	2	1	0	0	0	0	2	1	1	4	0	0
"975"	975	975	6	0	7	9	3	0	1	3	1	0	0	0	0	3	1	1	0	0	0
"976"	976	976	6	0	7	10	2	0	0	2	1	0	0	0	0	3	1	1	0	0	0
"977"	977	977	6	0	7	11	1	0	0	2	1	0	0	0	0	3	1	1	0	0	0
"978"	978	978	6	0	7	12	2	0	0	2	1	0	0	0	0	1	1	1	0	0	0
"979"	979	979	6	0	7	13	1	0	0	2	1	0	0	0	0	2	1	1	4	0	0
"980"	980	980	6	0	7	14	2	0	1	2	1	0	0	0	0	1	1	1	0	0	0
"981"	981	981	6	0	7	15	2	0	1	2	1	1	1	1	0	2	1	1	5	0	0
"982"	982	982	6	0	7	16	2	0	0	2	1	1	1	1	0	3	1	1	0	0	0
"983"	983	983	6	0	7	17	2	0	0	2	1	0	0	0	0	3	1	1	0	0	0
"984"	984	984	6	0	7	18	1	0	0	2	1	0	0	0	0	1	1	1	0	0	0
"985"	985	985	6	0	7	19	2	0	0	3	1	0	0	0	0	2	1	1	4	0	0
"986"	986	986	6	0	7	20	1	0	0	3	1	0	0	0	0	2	1	1	4	0	0
"987"	987	987	6	0	7	21	1	0	0	2	1	0	0	0	0	3	1	0	0	0	0
"988"	988	988	6	0	8	1	2	0	1	3	1	1	1	0	0	1	1	0	0	0	1
"989"	989	989	6	0	8	2	2	0	1	2	1	1	1	0	0	2	1	1	4	0	0
"990"	990	990	6	0	8	3	3	0	0	2	1	1	1	0	0	1	1	1	0	0	0
"991"	991	991	6	0	8	4	1	0	0	3	1	0	0	0	0	1	1	0	0	0	1
"992"	992	992	6	0	8	5	3	0	1	2	1	1	1	0	0	3	1	1	0	0	0
"993"	993	993	6	0	8	6	2	0	0	2	1	0	0	0	0	1	1	1	0	0	0
"994"	994	994	6	0	8	7	1	0	0	3	1	0	0	0	0	2	1	0	2	0	1
"995"	995	995	6	0	8	8	2	0	0	2	1	0	0	0	0	2	1	1	4	0	0
"996"	996	996	6	0	8	9	3	0	1	3	1	0	0	0	0	3	1	1	0	0	0
"997"	997	997	6	0	8	10	2	0	0	2	1	0	0	0	0	3	1	1	0	0	0
"998"	998	998	6	0	8	11	1	0	0	2	1	0	0	0	0	3	1	1	0	0	0
"999"	999	999	6	0	8	12	2	0	0	2	1	0	0	0	0	1	1	1	0	0	0
"1000"	1000	1000	6	0	8	13	1	0	0	2	1	0	0	0	0	2	1	1	4	0	0
"1001"	1001	1001	6	0	8	14	2	0	1	2	1	0	0	0	0	1	1	1	0	0	0
"1002"	1002	1002	6	0	8	15	2	0	1	2	1	1	1	0	0	2	1	0	2	0	1
"1003"	1003	1003	6	0	8	16	2	0	0	3	1	1	1	0	0	3	1	0	0	0	1
"1004"	1004	1004	6	0	8	17	2	0	0	2	1	0	0	0	0	3	1	1	0	0	0
"1005"	1005	1005	6	0	8	18	1	0	0	2	1	0	0	0	0	1	1	1	0	0	0
"1006"	1006	1006	6	0	8	19	2	0	0	3	1	0	0	0	0	2	1	1	4	0	0
"1007"	1007	1007	6	0	8	20	1	0	0	3	1	0	0	0	0	2	1	1	4	0	0
"1008"	1008	1008	6	0	8	21	1	0	0	2	1	0	0	0	0	3	1	0	0	0	1
"1009"	1009	1009	6	0	1	1	2	0	0	1	0	0	0	0	0	2	1	1	4	0	0
"1010"	1010	1010	6	0	1	2	1	0	0	1	0	0	0	0	0	3	1	1	0	0	0
"1011"	1011	1011	6	0	1	3	2	0	0	1	0	0	0	0	0	2	1	1	4	0	0
"1012"	1012	1012	6	0	1	4	1	0	0	1	0	0	0	0	0	3	0	1	0	0	0
"1013"	1013	1013	6	0	1	5	1	0	0	1	1	0	0	0	0	1	1	0	0	0	1
"1014"	1014	1014	6	0	1	6	1	1	1	1	1	1	0	1	1	3	1	1	0	0	1
"1015"	1015	1015	6	0	1	7	1	0	0	1	0	0	0	0	0	2	0	1	4	0	0
"1016"	1016	1016	6	0	1	8	2	0	0	1	0	0	0	0	0	1	1	1	0	0	0
"1017"	1017	1017	6	0	1	9	1	1	1	1	1	1	0	1	1	2	1	1	5	0	1
"1018"	1018	1018	6	0	1	10	1	0	0	1	1	0	0	0	0	1	1	0	0	0	1
"1019"	1019	1019	6	0	1	11	2	0	0	1	1	0	0	0	0	3	1	0	0	0	1
"1020"	1020	1020	6	0	1	12	2	0	0	1	1	0	0	0	0	2	1	0	2	0	1
"1021"	1021	1021	6	0	1	13	1	1	1	1	0	0	0	0	0	3	0	1	0	0	0
"1022"	1022	1022	6	0	1	14	1	0	0	1	0	0	0	0	0	1	1	1	0	0	0
"1023"	1023	1023	6	0	1	15	1	1	1	1	1	1	0	1	1	1	1	1	0	0	1
"1024"	1024	1024	6	0	1	16	2	0	0	1	0	0	0	0	0	1	0	1	0	0	0
"1025"	1025	1025	6	0	1	17	2	0	0	1	1	0	0	0	0	2	1	0	2	0	1
"1026"	1026	1026	6	0	1	18	1	1	1	1	0	0	0	0	0	1	0	1	0	0	0
"1027"	1027	1027	6	0	1	19	2	0	0	1	0	0	0	0	0	3	1	1	0	0	0
"1028"	1028	1028	6	0	1	20	1	1	1	1	0	0	0	0	0	2	0	1	3	0	0
"1029"	1029	1029	6	0	1	21	1	0	0	1	1	0	0	0	0	3	1	0	0	0	1
"1030"	1030	1030	6	0	2	1	2	0	0	1	0	0	0	0	0	2	1	1	4	0	0
"1031"	1031	1031	6	0	2	2	1	0	0	1	0	0	0	0	0	3	1	1	0	0	0
"1032"	1032	1032	6	0	2	3	2	0	0	1	0	0	0	0	0	2	1	0	4	0	0
"1033"	1033	1033	6	0	2	4	1	1	1	1	0	0	0	0	0	3	0	1	0	0	0
"1034"	1034	1034	6	0	2	5	1	0	0	3	1	0	0	0	0	1	1	0	0	0	0
"1035"	1035	1035	6	0	2	6	1	1	1	2	1	1	1	1	1	3	1	1	0	0	1
"1036"	1036	1036	6	0	2	7	1	1	1	1	0	0	0	0	0	2	0	1	3	0	0
"1037"	1037	1037	6	0	2	8	2	0	0	1	0	0	0	0	0	1	1	1	0	0	0
"1038"	1038	1038	6	0	2	9	1	1	1	3	1	1	1	1	1	2	1	1	5	0	1
"1039"	1039	1039	6	0	2	10	1	0	0	2	1	0	0	0	0	1	1	1	0	0	0
"1040"	1040	1040	6	0	2	11	2	0	0	3	1	0	0	0	0	3	1	1	0	0	0
"1041"	1041	1041	6	0	2	12	2	0	0	2	1	0	0	0	0	2	1	0	4	0	0
"1042"	1042	1042	6	0	2	13	2	0	1	1	0	0	0	0	0	3	1	1	0	0	0
"1043"	1043	1043	6	0	2	14	1	0	0	1	0	0	0	0	0	1	1	0	0	0	0
"1044"	1044	1044	6	0	2	15	1	1	1	2	1	1	1	1	1	1	1	1	0	0	1
"1045"	1045	1045	6	0	2	16	2	1	0	1	0	0	0	0	0	1	0	1	0	0	0
"1046"	1046	1046	6	0	2	17	2	0	0	2	1	0	0	0	0	2	1	1	4	0	0
"1047"	1047	1047	6	0	2	18	3	0	1	1	0	0	0	0	0	1	1	1	0	0	0
"1048"	1048	1048	6	0	2	19	2	0	0	1	0	0	0	0	0	3	1	0	0	0	0
"1049"	1049	1049	6	0	2	20	3	0	1	1	0	0	0	0	0	2	1	1	4	0	0
"1050"	1050	1050	6	0	2	21	1	0	0	3	1	0	0	0	0	3	1	0	0	0	0
"1051"	1051	1051	6	0	3	1	2	0	0	1	0	0	0	0	0	2	1	1	4	0	0
"1052"	1052	1052	6	0	3	2	1	0	0	1	0	0	0	0	0	3	1	1	0	0	0
"1053"	1053	1053	6	0	3	3	2	0	0	1	1	0	0	0	0	2	1	0	2	0	1
"1054"	1054	1054	6	0	3	4	2	0	1	1	0	0	0	0	0	3	1	1	0	0	0
"1055"	1055	1055	6	0	3	5	1	0	0	3	1	0	0	0	0	1	1	0	0	0	0
"1056"	1056	1056	6	0	3	6	2	0	1	3	1	1	1	0	0	3	1	0	0	0	0
"1057"	1057	1057	6	0	3	7	2	0	1	1	0	0	0	0	0	2	1	1	4	0	0
"1058"	1058	1058	6	0	3	8	2	0	0	1	0	0	0	0	0	1	1	1	0	0	0
"1059"	1059	1059	6	0	3	9	3	0	1	2	1	1	1	0	0	2	1	0	4	0	0
"1060"	1060	1060	6	0	3	10	1	0	0	2	1	0	0	0	0	1	1	1	0	0	0
"1061"	1061	1061	6	0	3	11	2	0	0	3	1	0	0	0	0	3	1	1	0	0	0
"1062"	1062	1062	6	0	3	12	2	0	0	2	1	0	0	0	0	2	1	0	4	0	0
"1063"	1063	1063	6	0	3	13	2	0	1	1	0	0	0	0	0	3	1	1	0	0	0
"1064"	1064	1064	6	0	3	14	1	0	0	1	1	0	0	0	0	1	1	0	0	0	1
"1065"	1065	1065	6	0	3	15	2	0	1	3	1	1	1	0	0	1	1	0	0	0	0
"1066"	1066	1066	6	0	3	16	1	0	0	1	0	0	0	0	0	1	1	1	0	0	0
"1067"	1067	1067	6	0	3	17	2	0	0	2	1	0	0	0	0	2	1	1	4	0	0
"1068"	1068	1068	6	0	3	18	3	0	1	1	0	0	0	0	0	1	1	1	0	0	0
"1069"	1069	1069	6	0	3	19	2	0	0	1	1	0	0	0	0	3	1	0	0	0	1
"1070"	1070	1070	6	0	3	20	3	0	1	1	0	0	0	0	0	2	1	1	4	0	0
"1071"	1071	1071	6	0	3	21	1	0	0	3	1	0	0	0	0	3	1	0	0	0	0
"1072"	1072	1072	6	0	4	1	2	0	0	1	0	0	0	0	0	2	1	1	4	0	0
"1073"	1073	1073	6	0	4	2	1	0	0	1	0	0	0	0	0	3	1	1	0	0	0
"1074"	1074	1074	6	0	4	3	2	0	0	2	1	0	0	0	0	2	1	1	4	0	0
"1075"	1075	1075	6	0	4	4	2	0	1	1	0	0	0	0	0	3	1	1	0	0	0
"1076"	1076	1076	6	0	4	5	1	0	0	3	1	0	0	0	0	1	1	0	0	0	0
"1077"	1077	1077	6	0	4	6	2	0	1	3	1	1	1	0	0	3	1	0	0	0	0
"1078"	1078	1078	6	0	4	7	2	0	1	1	0	0	0	0	0	2	1	1	4	0	0
"1079"	1079	1079	6	0	4	8	2	0	0	1	0	0	0	0	0	1	1	1	0	0	0
"1080"	1080	1080	6	0	4	9	3	0	1	2	1	1	1	0	0	2	1	0	4	0	0
"1081"	1081	1081	6	0	4	10	1	0	0	2	1	0	0	0	0	1	1	1	0	0	0
"1082"	1082	1082	6	0	4	11	2	0	0	3	1	0	0	0	0	3	1	1	0	0	0
"1083"	1083	1083	6	0	4	12	2	0	0	2	1	0	0	0	0	2	1	0	4	0	0
"1084"	1084	1084	6	0	4	13	2	0	1	1	0	0	0	0	0	3	1	1	0	0	0
"1085"	1085	1085	6	0	4	14	1	0	0	2	1	0	0	0	0	1	1	1	0	0	0
"1086"	1086	1086	6	0	4	15	2	0	1	3	1	1	1	0	0	1	1	0	0	0	0
"1087"	1087	1087	6	0	4	16	1	0	0	1	0	0	0	0	0	1	1	1	0	0	0
"1088"	1088	1088	6	0	4	17	2	0	0	2	1	0	0	0	0	2	1	1	4	0	0
"1089"	1089	1089	6	0	4	18	3	0	1	1	0	0	0	0	0	1	1	1	0	0	0
"1090"	1090	1090	6	0	4	19	2	0	0	2	1	0	0	0	0	3	1	1	0	0	0
"1091"	1091	1091	6	0	4	20	3	0	1	1	0	0	0	0	0	2	1	1	4	0	0
"1092"	1092	1092	6	0	4	21	1	0	0	3	1	0	0	0	0	3	1	0	0	0	0
"1093"	1093	1093	6	0	5	1	2	0	0	1	0	0	0	0	0	2	1	1	4	0	0
"1094"	1094	1094	6	0	5	2	1	0	0	1	0	0	0	0	0	3	1	1	0	0	0
"1095"	1095	1095	6	0	5	3	2	0	0	2	1	0	0	0	0	2	1	1	4	0	0
"1096"	1096	1096	6	0	5	4	2	0	1	1	0	0	0	0	0	3	1	1	0	0	0
"1097"	1097	1097	6	0	5	5	1	0	0	3	1	0	0	0	0	1	1	0	0	0	0
"1098"	1098	1098	6	0	5	6	2	0	1	3	1	1	1	0	0	3	1	0	0	0	0
"1099"	1099	1099	6	0	5	7	2	0	1	1	0	0	0	0	0	2	1	1	4	0	0
"1100"	1100	1100	6	0	5	8	2	0	0	1	0	0	0	0	0	1	1	1	0	0	0
"1101"	1101	1101	6	0	5	9	3	0	1	2	1	1	1	0	0	2	1	0	4	0	0
"1102"	1102	1102	6	0	5	10	1	0	0	2	1	0	0	0	0	1	1	1	0	0	0
"1103"	1103	1103	6	0	5	11	2	0	0	3	1	0	0	0	0	3	1	1	0	0	0
"1104"	1104	1104	6	0	5	12	2	0	0	2	1	0	0	0	0	2	1	0	4	0	0
"1105"	1105	1105	6	0	5	13	2	0	1	1	0	0	0	0	0	3	1	1	0	0	0
"1106"	1106	1106	6	0	5	14	1	0	0	2	1	0	0	0	0	1	1	1	0	0	0
"1107"	1107	1107	6	0	5	15	2	0	1	3	1	1	1	0	0	1	1	0	0	0	0
"1108"	1108	1108	6	0	5	16	1	0	0	1	0	0	0	0	0	1	1	1	0	0	0
"1109"	1109	1109	6	0	5	17	2	0	0	2	1	0	0	0	0	2	1	1	4	0	0
"1110"	1110	1110	6	0	5	18	3	0	1	1	0	0	0	0	0	1	1	1	0	0	0
"1111"	1111	1111	6	0	5	19	2	0	0	2	1	0	0	0	0	3	1	1	0	0	0
"1112"	1112	1112	6	0	5	20	3	0	1	1	0	0	0	0	0	2	1	1	4	0	0
"1113"	1113	1113	6	0	5	21	1	0	0	3	1	0	0	0	0	3	1	0	0	0	0
"1114"	1114	1114	6	0	6	1	2	0	0	1	0	0	0	0	0	2	1	1	4	0	0
"1115"	1115	1115	6	0	6	2	1	0	0	1	0	0	0	0	0	3	1	1	0	0	0
"1116"	1116	1116	6	0	6	3	2	0	0	2	1	0	0	0	0	2	1	1	4	0	0
"1117"	1117	1117	6	0	6	4	2	0	1	1	0	0	0	0	0	3	1	1	0	0	0
"1118"	1118	1118	6	0	6	5	1	0	0	3	1	0	0	0	0	1	1	0	0	0	0
"1119"	1119	1119	6	0	6	6	2	0	1	3	1	1	1	0	0	3	1	0	0	0	0
"1120"	1120	1120	6	0	6	7	2	0	1	1	0	0	0	0	0	2	1	1	4	0	0
"1121"	1121	1121	6	0	6	8	2	0	0	1	0	0	0	0	0	1	1	1	0	0	0
"1122"	1122	1122	6	0	6	9	3	0	1	2	1	1	1	0	0	2	1	0	4	0	0
"1123"	1123	1123	6	0	6	10	1	0	0	2	1	0	0	0	0	1	1	1	0	0	0
"1124"	1124	1124	6	0	6	11	2	0	0	3	1	0	0	0	0	3	1	1	0	0	0
"1125"	1125	1125	6	0	6	12	2	0	0	2	1	0	0	0	0	2	1	0	4	0	0
"1126"	1126	1126	6	0	6	13	2	0	1	1	0	0	0	0	0	3	1	1	0	0	0
"1127"	1127	1127	6	0	6	14	1	0	0	2	1	0	0	0	0	1	1	1	0	0	0
"1128"	1128	1128	6	0	6	15	2	0	1	3	1	1	1	0	0	1	1	0	0	0	0
"1129"	1129	1129	6	0	6	16	1	0	0	1	0	0	0	0	0	1	1	1	0	0	0
"1130"	1130	1130	6	0	6	17	2	0	0	2	1	0	0	0	0	2	1	1	4	0	0
"1131"	1131	1131	6	0	6	18	3	0	1	1	0	0	0	0	0	1	1	1	0	0	0
"1132"	1132	1132	6	0	6	19	2	0	0	2	1	0	0	0	0	3	1	1	0	0	0
"1133"	1133	1133	6	0	6	20	3	0	1	1	0	0	0	0	0	2	1	1	4	0	0
"1134"	1134	1134	6	0	6	21	1	0	0	3	1	0	0	0	0	3	1	0	0	0	0
"1135"	1135	1135	6	0	7	1	2	0	0	1	0	0	0	0	0	2	1	1	4	0	0
"1136"	1136	1136	6	0	7	2	1	0	0	1	0	0	0	0	0	3	1	1	0	0	0
"1137"	1137	1137	6	0	7	3	2	0	0	2	1	0	0	0	0	2	1	1	4	0	0
"1138"	1138	1138	6	0	7	4	2	0	1	1	0	0	0	0	0	3	1	1	0	0	0
"1139"	1139	1139	6	0	7	5	1	0	0	3	1	0	0	0	0	1	1	0	0	0	1
"1140"	1140	1140	6	0	7	6	2	0	1	3	1	1	1	0	0	3	1	0	0	0	0
"1141"	1141	1141	6	0	7	7	2	0	1	1	0	0	0	0	0	2	1	1	4	0	0
"1142"	1142	1142	6	0	7	8	2	0	0	1	0	0	0	0	0	1	1	1	0	0	0
"1143"	1143	1143	6	0	7	9	3	0	1	2	1	1	1	0	0	2	1	0	4	0	0
"1144"	1144	1144	6	0	7	10	1	1	1	2	1	0	0	1	1	1	0	1	0	0	0
"1145"	1145	1145	6	0	7	11	2	0	0	3	1	0	0	1	0	3	0	1	0	0	0
"1146"	1146	1146	6	0	7	12	2	0	0	2	1	0	0	0	0	2	1	0	2	0	1
"1147"	1147	1147	6	0	7	13	2	0	1	1	1	0	0	0	0	3	1	0	0	0	1
"1148"	1148	1148	6	0	7	14	1	0	0	2	1	0	0	0	0	1	1	1	0	0	0
"1149"	1149	1149	6	0	7	15	2	0	1	3	1	1	1	0	0	1	1	0	0	0	0
"1150"	1150	1150	6	0	7	16	1	0	0	1	0	0	0	0	0	1	1	1	0	0	0
"1151"	1151	1151	6	0	7	17	2	0	0	2	1	0	0	1	0	2	0	1	5	0	0
"1152"	1152	1152	6	0	7	18	3	0	1	1	1	0	0	0	0	1	1	0	0	0	1
"1153"	1153	1153	6	0	7	19	2	0	0	2	1	0	0	0	0	3	1	1	0	0	0
"1154"	1154	1154	6	0	7	20	3	0	1	1	1	0	0	0	0	2	1	0	2	0	1
"1155"	1155	1155	6	0	7	21	1	0	0	3	1	0	0	0	0	3	1	0	0	0	1
"1156"	1156	1156	7	0	1	1	1	0	0	1	0	0	0	0	0	1	1	1	0	0	0
"1157"	1157	1157	7	0	1	2	1	0	0	1	0	0	0	0	0	2	1	1	4	0	0
"1158"	1158	1158	7	0	1	3	1	0	0	1	0	0	0	0	0	3	1	1	0	0	0
"1159"	1159	1159	7	0	1	4	1	1	1	2	0	0	0	0	0	2	0	1	3	0	0
"1160"	1160	1160	7	0	1	5	1	1	1	2	0	0	0	0	0	3	0	1	0	0	0
"1161"	1161	1161	7	0	1	6	1	1	1	2	0	0	0	0	0	1	0	1	0	0	0
"1162"	1162	1162	7	0	1	7	1	0	0	1	0	0	0	0	0	3	1	1	0	0	0
"1163"	1163	1163	7	0	1	8	1	0	0	1	0	0	0	0	0	1	1	1	0	0	0
"1164"	1164	1164	7	0	1	9	1	0	0	1	0	0	0	0	0	2	1	1	4	0	0
"1165"	1165	1165	7	0	1	10	1	0	0	1	0	0	0	0	0	1	0	0	0	0	0
"1166"	1166	1166	7	0	1	11	1	0	0	1	0	0	0	0	0	3	0	0	0	0	0
"1167"	1167	1167	7	0	1	12	1	0	0	1	0	0	0	0	0	2	0	0	4	0	0
"1168"	1168	1168	7	0	2	1	1	0	0	1	0	0	0	0	0	1	1	1	0	0	0
"1169"	1169	1169	7	0	2	2	1	0	0	1	0	0	0	0	0	2	1	1	4	0	0
"1170"	1170	1170	7	0	2	3	1	0	0	1	0	0	0	0	0	3	1	1	0	0	0
"1171"	1171	1171	7	0	2	4	3	1	1	2	0	0	0	0	0	2	0	1	3	0	0
"1172"	1172	1172	7	0	2	5	3	1	1	2	0	0	0	0	0	3	0	1	0	0	0
"1173"	1173	1173	7	0	2	6	3	1	1	2	0	0	0	0	0	1	0	1	0	0	0
"1174"	1174	1174	7	0	2	7	1	0	0	1	1	0	0	0	0	3	1	0	0	0	1
"1175"	1175	1175	7	0	2	8	1	0	0	1	1	0	0	0	0	1	1	0	0	0	1
"1176"	1176	1176	7	0	2	9	1	0	0	1	1	0	0	0	0	2	1	0	2	0	1
"1177"	1177	1177	7	0	2	10	1	0	0	1	0	0	0	0	0	1	0	0	0	0	0
"1178"	1178	1178	7	0	2	11	1	0	0	1	0	0	0	0	0	3	0	0	0	0	0
"1179"	1179	1179	7	0	2	12	1	0	0	1	0	0	0	0	0	2	0	0	4	0	0
"1180"	1180	1180	7	0	3	1	1	0	0	1	0	0	0	0	0	1	1	0	0	0	0
"1181"	1181	1181	7	0	3	2	1	0	0	1	0	0	0	0	0	2	1	0	4	0	0
"1182"	1182	1182	7	0	3	3	1	0	0	1	0	0	0	0	0	3	1	0	0	0	0
"1183"	1183	1183	7	0	3	4	3	1	1	2	0	0	0	1	0	2	0	1	5	0	0
"1184"	1184	1184	7	0	3	5	3	1	1	2	0	0	0	1	0	3	0	1	0	0	0
"1185"	1185	1185	7	0	3	6	3	1	1	2	0	0	0	1	0	1	0	1	0	0	0
"1186"	1186	1186	7	0	3	7	1	0	0	3	1	0	0	0	0	3	1	0	0	0	1
"1187"	1187	1187	7	0	3	8	1	0	0	3	1	0	0	0	0	1	1	0	0	0	1
"1188"	1188	1188	7	0	3	9	1	0	0	3	1	0	0	0	0	2	1	0	2	0	1
"1189"	1189	1189	7	0	3	10	1	0	0	1	0	0	0	0	0	1	1	0	0	0	0
"1190"	1190	1190	7	0	3	11	1	0	0	1	0	0	0	0	0	3	1	0	0	0	0
"1191"	1191	1191	7	0	3	12	1	0	0	1	0	0	0	0	0	2	1	0	4	0	0
"1192"	1192	1192	7	0	4	1	1	0	0	1	0	0	0	0	0	1	1	1	0	0	0
"1193"	1193	1193	7	0	4	2	1	0	0	1	0	0	0	0	0	2	1	1	4	0	0
"1194"	1194	1194	7	0	4	3	1	0	0	1	0	0	0	0	0	3	1	1	0	0	0
"1195"	1195	1195	7	0	4	4	2	0	1	1	0	0	0	0	0	2	1	1	4	0	0
"1196"	1196	1196	7	0	4	5	2	0	1	1	0	0	0	0	0	3	1	1	0	0	0
"1197"	1197	1197	7	0	4	6	2	0	1	1	0	0	0	0	0	1	1	1	0	0	0
"1198"	1198	1198	7	0	4	7	1	0	0	3	1	0	0	0	0	3	1	0	0	0	1
"1199"	1199	1199	7	0	4	8	1	0	0	3	1	0	0	0	0	1	1	0	0	0	1
"1200"	1200	1200	7	0	4	9	1	0	0	3	1	0	0	0	0	2	1	0	2	0	1
"1201"	1201	1201	7	0	4	10	1	0	0	1	0	0	0	0	0	1	0	0	0	0	0
"1202"	1202	1202	7	0	4	11	1	0	0	1	0	0	0	0	0	3	0	0	0	0	0
"1203"	1203	1203	7	0	4	12	1	0	0	1	0	0	0	0	0	2	0	0	4	0	0
"1204"	1204	1204	7	0	5	1	1	0	0	1	0	0	0	0	0	1	1	1	0	0	0
"1205"	1205	1205	7	0	5	2	1	0	0	1	0	0	0	0	0	2	1	1	4	0	0
"1206"	1206	1206	7	0	5	3	1	0	0	1	0	0	0	0	0	3	1	1	0	0	0
"1207"	1207	1207	7	0	5	4	2	0	1	1	0	0	0	0	0	2	1	1	4	0	0
"1208"	1208	1208	7	0	5	5	2	0	1	1	0	0	0	0	0	3	1	1	0	0	0
"1209"	1209	1209	7	0	5	6	2	0	1	1	0	0	0	0	0	1	1	1	0	0	0
"1210"	1210	1210	7	0	5	7	1	0	0	3	1	0	0	0	0	3	0	0	0	0	0
"1211"	1211	1211	7	0	5	8	1	0	0	3	1	0	0	0	0	1	0	0	0	0	0
"1212"	1212	1212	7	0	5	9	1	0	0	3	1	0	0	0	0	2	0	0	4	0	0
"1213"	1213	1213	7	0	5	10	1	0	0	1	0	0	0	0	0	1	0	0	0	0	0
"1214"	1214	1214	7	0	5	11	1	0	0	1	0	0	0	0	0	3	0	0	0	0	0
"1215"	1215	1215	7	0	5	12	1	0	0	1	0	0	0	0	0	2	0	0	4	0	0
"1216"	1216	1216	7	0	6	1	1	0	0	1	0	0	0	0	0	1	1	1	0	0	0
"1217"	1217	1217	7	0	6	2	1	0	0	1	0	0	0	0	0	2	1	1	4	0	0
"1218"	1218	1218	7	0	6	3	1	0	0	1	0	0	0	0	0	3	1	1	0	0	0
"1219"	1219	1219	7	0	6	4	2	0	1	1	0	0	0	0	0	2	1	1	4	0	0
"1220"	1220	1220	7	0	6	5	2	0	1	1	0	0	0	0	0	3	1	1	0	0	0
"1221"	1221	1221	7	0	6	6	2	0	1	1	0	0	0	0	0	1	1	1	0	0	0
"1222"	1222	1222	7	0	6	7	1	0	0	3	1	0	0	0	0	3	1	0	0	0	0
"1223"	1223	1223	7	0	6	8	1	0	0	3	1	0	0	0	0	1	1	0	0	0	0
"1224"	1224	1224	7	0	6	9	1	0	0	3	1	0	0	0	0	2	1	0	4	0	0
"1225"	1225	1225	7	0	6	10	1	0	0	1	0	0	0	0	0	1	0	0	0	0	0
"1226"	1226	1226	7	0	6	11	1	0	0	1	0	0	0	0	0	3	0	0	0	0	0
"1227"	1227	1227	7	0	6	12	1	0	0	1	0	0	0	0	0	2	0	0	4	0	0
"1228"	1228	1228	7	0	7	1	1	0	0	1	0	0	0	0	0	1	1	0	0	0	0
"1229"	1229	1229	7	0	7	2	1	0	0	1	0	0	0	0	0	2	1	0	4	0	0
"1230"	1230	1230	7	0	7	3	1	0	0	1	0	0	0	0	0	3	1	0	0	0	0
"1231"	1231	1231	7	0	7	4	2	0	1	1	0	0	0	0	0	2	1	1	4	0	0
"1232"	1232	1232	7	0	7	5	2	0	1	1	0	0	0	0	0	3	1	1	0	0	0
"1233"	1233	1233	7	0	7	6	2	0	1	1	0	0	0	0	0	1	1	1	0	0	0
"1234"	1234	1234	7	0	7	7	1	1	1	3	1	0	0	0	0	3	0	0	0	0	1
"1235"	1235	1235	7	0	7	8	1	1	1	3	1	0	0	0	0	1	0	0	0	0	1
"1236"	1236	1236	7	0	7	9	1	1	1	3	1	0	0	0	0	2	0	0	1	0	1
"1237"	1237	1237	7	0	7	10	1	0	0	1	0	0	0	0	0	1	0	0	0	0	0
"1238"	1238	1238	7	0	7	11	1	0	0	1	0	0	0	0	0	3	0	0	0	0	0
"1239"	1239	1239	7	0	7	12	1	0	0	1	0	0	0	0	0	2	0	0	4	0	0
"1240"	1240	1240	7	0	8	1	1	0	0	1	0	0	0	0	0	1	1	1	0	0	0
"1241"	1241	1241	7	0	8	2	1	0	0	1	0	0	0	0	0	2	1	1	4	0	0
"1242"	1242	1242	7	0	8	3	1	0	0	1	0	0	0	0	0	3	1	1	0	0	0
"1243"	1243	1243	7	0	8	4	2	0	1	1	0	0	0	0	0	2	1	1	4	0	0
"1244"	1244	1244	7	0	8	5	2	0	1	1	0	0	0	0	0	3	1	1	0	0	0
"1245"	1245	1245	7	0	8	6	2	0	1	1	0	0	0	0	0	1	1	1	0	0	0
"1246"	1246	1246	7	0	8	7	1	1	1	3	1	0	0	0	0	3	0	0	0	0	1
"1247"	1247	1247	7	0	8	8	1	1	1	3	1	0	0	0	0	1	0	0	0	0	1
"1248"	1248	1248	7	0	8	9	1	1	1	3	1	0	0	0	0	2	0	0	1	0	1
"1249"	1249	1249	7	0	8	10	1	0	0	1	0	0	0	0	0	1	1	0	0	0	0
"1250"	1250	1250	7	0	8	11	1	0	0	1	0	0	0	0	0	3	1	0	0	0	0
"1251"	1251	1251	7	0	8	12	1	0	0	1	0	0	0	0	0	2	1	0	4	0	0
"1252"	1252	1252	7	0	9	1	1	0	0	1	0	0	0	0	0	1	1	1	0	0	0
"1253"	1253	1253	7	0	9	2	1	0	0	1	0	0	0	0	0	2	1	1	4	0	0
"1254"	1254	1254	7	0	9	3	1	0	0	1	0	0	0	0	0	3	1	1	0	0	0
"1255"	1255	1255	7	0	9	4	2	0	1	1	0	0	0	0	0	2	1	1	4	0	0
"1256"	1256	1256	7	0	9	5	2	0	1	1	0	0	0	0	0	3	1	1	0	0	0
"1257"	1257	1257	7	0	9	6	2	0	1	1	0	0	0	0	0	1	1	1	0	0	0
"1258"	1258	1258	7	0	9	7	1	0	1	3	1	0	0	0	0	3	0	0	0	0	0
"1259"	1259	1259	7	0	9	8	1	0	1	3	1	0	0	0	0	1	0	0	0	0	0
"1260"	1260	1260	7	0	9	9	1	0	1	3	1	0	0	0	0	2	0	0	4	0	0
"1261"	1261	1261	7	0	9	10	1	0	0	1	0	0	0	0	0	1	0	0	0	0	0
"1262"	1262	1262	7	0	9	11	1	0	0	1	0	0	0	0	0	3	0	0	0	0	0
"1263"	1263	1263	7	0	9	12	1	0	0	1	0	0	0	0	0	2	0	0	4	0	0
"1264"	1264	1264	7	0	10	1	1	0	0	1	0	0	0	0	0	1	1	0	0	0	0
"1265"	1265	1265	7	0	10	2	1	0	0	1	0	0	0	0	0	2	1	0	4	0	0
"1266"	1266	1266	7	0	10	3	1	0	0	1	0	0	0	0	0	3	1	0	0	0	0
"1267"	1267	1267	7	0	10	4	2	0	1	1	0	0	0	0	0	2	1	1	4	0	0
"1268"	1268	1268	7	0	10	5	2	0	1	1	0	0	0	0	0	3	1	1	0	0	0
"1269"	1269	1269	7	0	10	6	2	0	1	1	0	0	0	0	0	1	1	1	0	0	0
"1270"	1270	1270	7	0	10	7	1	1	1	3	1	0	0	0	0	3	0	0	0	0	1
"1271"	1271	1271	7	0	10	8	1	1	1	3	1	0	0	0	0	1	0	0	0	0	1
"1272"	1272	1272	7	0	10	9	1	1	1	3	1	0	0	0	0	2	0	0	1	0	1
"1273"	1273	1273	7	0	10	10	1	0	0	1	0	0	0	0	0	1	0	0	0	0	0
"1274"	1274	1274	7	0	10	11	1	0	0	1	0	0	0	0	0	3	0	0	0	0	0
"1275"	1275	1275	7	0	10	12	1	0	0	1	0	0	0	0	0	2	0	0	4	0	0
"1276"	1276	1276	8	0	1	1	1	0	0	1	0	0	0	0	0	1	1	1	0	0	0
"1277"	1277	1277	8	0	1	2	1	1	1	1	1	0	0	0	0	2	0	0	1	0	1
"1278"	1278	1278	8	0	1	3	2	0	0	1	1	0	0	0	0	1	1	1	0	0	1
"1279"	1279	1279	8	0	1	4	1	1	1	1	0	0	0	0	0	2	0	1	3	0	0
"1280"	1280	1280	8	0	1	5	2	1	0	1	0	0	0	0	0	3	0	1	0	0	0
"1281"	1281	1281	8	0	1	6	1	0	0	1	1	0	0	0	0	3	1	1	0	0	1
"1282"	1282	1282	8	0	1	7	2	1	0	1	0	0	0	0	0	1	0	1	0	0	0
"1283"	1283	1283	8	0	1	8	1	0	0	1	0	0	0	0	0	3	1	1	0	0	0
"1284"	1284	1284	8	0	1	9	2	1	0	1	1	0	0	0	0	3	0	0	0	0	1
"1285"	1285	1285	8	0	1	10	1	1	1	1	1	0	0	0	0	1	0	0	0	0	1
"1286"	1286	1286	8	0	1	11	1	0	0	1	0	0	0	0	0	2	1	1	4	0	0
"1287"	1287	1287	8	0	1	12	2	0	0	1	1	0	0	0	0	2	1	1	2	0	1
"1288"	1288	1288	8	0	2	1	1	0	0	1	0	0	0	0	0	1	1	1	0	0	0
"1289"	1289	1289	8	0	2	2	1	1	1	3	1	0	0	0	0	2	0	0	1	0	1
"1290"	1290	1290	8	0	2	3	2	0	0	2	1	0	0	0	0	1	1	1	0	0	0
"1291"	1291	1291	8	0	2	4	3	0	1	1	0	0	0	0	0	2	0	1	4	0	0
"1292"	1292	1292	8	0	2	5	1	0	0	1	0	0	0	0	0	3	0	1	0	0	0
"1293"	1293	1293	8	0	2	6	1	0	0	3	1	0	0	0	0	3	1	1	0	0	0
"1294"	1294	1294	8	0	2	7	2	0	0	1	0	0	0	0	0	1	0	1	0	0	0
"1295"	1295	1295	8	0	2	8	1	0	0	1	0	0	0	0	0	3	1	1	0	0	0
"1296"	1296	1296	8	0	2	9	2	1	0	3	1	0	0	0	0	3	0	0	0	0	1
"1297"	1297	1297	8	0	2	10	1	1	1	3	1	0	0	0	0	1	0	0	0	0	1
"1298"	1298	1298	8	0	2	11	1	0	0	1	0	0	0	0	0	2	1	1	4	0	0
"1299"	1299	1299	8	0	2	12	2	0	0	3	1	0	0	0	0	2	1	1	4	0	0
"1300"	1300	1300	8	0	3	1	1	0	0	1	0	0	0	0	0	1	1	1	0	0	0
"1301"	1301	1301	8	0	3	2	1	1	1	3	1	0	0	1	1	2	0	0	5	0	1
"1302"	1302	1302	8	0	3	3	2	0	0	2	1	0	0	0	0	1	1	1	0	0	0
"1303"	1303	1303	8	0	3	4	3	0	1	1	1	1	0	1	1	2	0	1	5	0	1
"1304"	1304	1304	8	0	3	5	1	1	1	1	1	1	0	1	1	3	0	1	0	0	1
"1305"	1305	1305	8	0	3	6	1	0	0	3	1	0	0	0	0	3	1	1	0	0	0
"1306"	1306	1306	8	0	3	7	2	0	0	1	1	1	0	1	1	1	0	1	0	0	1
"1307"	1307	1307	8	0	3	8	1	0	0	1	0	0	0	0	0	3	1	1	0	0	0
"1308"	1308	1308	8	0	3	9	2	1	0	3	1	0	0	1	0	3	0	0	0	0	1
"1309"	1309	1309	8	0	3	10	1	1	1	3	1	0	0	1	1	1	0	0	0	0	1
"1310"	1310	1310	8	0	3	11	1	0	0	1	0	0	0	0	0	2	1	1	4	0	0
"1311"	1311	1311	8	0	3	12	2	0	0	3	1	0	0	0	0	2	1	1	4	0	0
"1312"	1312	1312	8	0	4	1	1	0	0	1	0	0	0	0	0	1	1	1	0	0	0
"1313"	1313	1313	8	0	4	2	3	1	1	3	1	0	0	1	0	2	0	0	5	0	1
"1314"	1314	1314	8	0	4	3	2	0	0	2	1	0	0	0	0	1	1	1	0	0	0
"1315"	1315	1315	8	0	4	4	1	0	1	2	1	1	0	0	0	2	1	1	4	0	0
"1316"	1316	1316	8	0	4	5	1	0	1	2	1	1	0	0	0	3	1	1	0	0	0
"1317"	1317	1317	8	0	4	6	1	0	0	3	1	0	0	0	0	3	1	1	0	0	0
"1318"	1318	1318	8	0	4	7	1	0	0	2	1	1	0	0	0	1	1	1	0	0	0
"1319"	1319	1319	8	0	4	8	1	0	0	1	0	0	0	0	0	3	1	1	0	0	0
"1320"	1320	1320	8	0	4	9	3	1	0	2	1	0	0	1	0	3	0	0	0	0	1
"1321"	1321	1321	8	0	4	10	3	1	1	2	1	0	0	1	0	1	0	0	0	0	1
"1322"	1322	1322	8	0	4	11	1	0	0	1	0	0	0	0	0	2	1	1	4	0	0
"1323"	1323	1323	8	0	4	12	2	0	0	3	1	0	0	0	0	2	1	1	4	0	0
"1324"	1324	1324	8	0	5	1	1	0	0	1	0	0	0	0	0	1	1	1	0	0	0
"1325"	1325	1325	8	0	5	2	3	1	1	3	1	0	0	1	0	2	0	0	5	0	1
"1326"	1326	1326	8	0	5	3	2	0	0	2	1	0	0	0	0	1	1	1	0	0	0
"1327"	1327	1327	8	0	5	4	1	0	1	2	1	1	0	0	0	2	1	1	4	0	0
"1328"	1328	1328	8	0	5	5	1	0	1	2	1	1	0	0	0	3	1	1	0	0	0
"1329"	1329	1329	8	0	5	6	1	0	0	3	1	0	0	0	0	3	1	1	0	0	0
"1330"	1330	1330	8	0	5	7	1	0	0	2	1	1	0	0	0	1	1	1	0	0	0
"1331"	1331	1331	8	0	5	8	1	0	0	1	0	0	0	0	0	3	1	1	0	0	0
"1332"	1332	1332	8	0	5	9	2	1	0	2	1	0	0	1	0	3	0	0	0	0	1
"1333"	1333	1333	8	0	5	10	2	1	1	2	1	0	0	1	0	1	0	0	0	0	1
"1334"	1334	1334	8	0	5	11	1	0	0	1	0	0	0	0	0	2	1	1	4	0	0
"1335"	1335	1335	8	0	5	12	2	0	0	3	1	0	0	0	0	2	1	1	4	0	0
"1336"	1336	1336	17	1	1	1	1	1	1	1	0	0	0	0	0	3	0	0	0	0	0
"1337"	1337	1337	17	1	1	2	1	0	0	1	0	0	0	0	0	2	1	1	4	0	0
"1338"	1338	1338	17	1	1	3	2	0	0	1	1	0	0	0	0	3	1	0	0	0	1
"1339"	1339	1339	17	1	1	4	1	0	0	1	1	0	0	0	0	2	1	0	2	0	1
"1340"	1340	1340	17	1	1	5	2	0	0	1	1	0	0	0	0	1	1	0	0	0	1
"1341"	1341	1341	17	1	1	6	2	1	0	1	0	0	0	0	0	2	0	0	3	0	0
"1342"	1342	1342	17	1	1	7	1	0	0	1	0	0	0	0	0	1	1	1	0	0	0
"1343"	1343	1343	17	1	1	8	1	1	1	1	0	0	0	0	0	1	0	0	0	0	0
"1344"	1344	1344	17	1	1	9	1	0	0	1	0	0	0	0	0	3	1	1	0	0	0
"1345"	1345	1345	17	1	2	1	2	1	1	1	1	1	0	1	1	3	1	0	0	0	1
"1346"	1346	1346	17	1	2	2	1	0	0	1	0	0	0	0	0	2	1	1	4	0	0
"1347"	1347	1347	17	1	2	3	2	1	0	2	1	0	0	0	0	3	1	1	0	0	1
"1348"	1348	1348	17	1	2	4	1	1	1	2	1	0	0	0	0	2	1	1	1	0	1
"1349"	1349	1349	17	1	2	5	2	1	0	2	1	0	0	0	0	1	1	1	0	0	1
"1350"	1350	1350	17	1	2	6	1	1	1	1	1	1	0	1	1	2	1	0	5	0	1
"1351"	1351	1351	17	1	2	7	1	0	0	1	0	0	0	0	0	1	1	1	0	0	0
"1352"	1352	1352	17	1	2	8	2	1	1	1	1	1	0	1	1	1	1	0	0	0	1
"1353"	1353	1353	17	1	2	9	1	0	0	1	0	0	0	0	0	3	1	1	0	0	0
"1354"	1354	1354	17	1	3	1	1	0	1	2	1	1	0	0	0	3	0	1	0	0	0
"1355"	1355	1355	17	1	3	2	1	0	0	1	0	0	0	0	0	2	0	1	4	0	0
"1356"	1356	1356	17	1	3	3	2	0	0	2	1	0	0	0	0	3	1	1	0	0	0
"1357"	1357	1357	17	1	3	4	1	0	1	3	1	0	0	0	0	2	1	1	4	0	0
"1358"	1358	1358	17	1	3	5	2	0	0	3	1	0	0	0	0	1	1	1	0	0	0
"1359"	1359	1359	17	1	3	6	1	0	1	2	1	1	0	0	0	2	0	1	4	0	0
"1360"	1360	1360	17	1	3	7	1	0	0	1	0	0	0	0	0	1	0	1	0	0	0
"1361"	1361	1361	17	1	3	8	1	0	1	3	1	1	0	0	0	1	0	1	0	0	0
"1362"	1362	1362	17	1	3	9	1	0	0	1	0	0	0	0	0	3	0	1	0	0	0
"1363"	1363	1363	17	1	4	1	1	1	1	2	1	1	1	1	1	3	0	1	0	0	0
"1364"	1364	1364	17	1	4	2	1	0	0	1	0	0	0	0	0	2	1	0	4	0	0
"1365"	1365	1365	17	1	4	3	2	0	0	2	1	0	0	0	0	3	1	1	0	0	0
"1366"	1366	1366	17	1	4	4	1	0	1	3	1	0	0	0	0	2	1	1	4	0	0
"1367"	1367	1367	17	1	4	5	2	0	0	3	1	0	0	0	0	1	1	1	0	0	0
"1368"	1368	1368	17	1	4	6	1	1	1	2	1	1	1	1	1	2	0	1	5	0	0
"1369"	1369	1369	17	1	4	7	1	0	0	1	0	0	0	0	0	1	1	0	0	0	0
"1370"	1370	1370	17	1	4	8	1	1	1	3	1	1	1	1	1	1	0	1	0	0	0
"1371"	1371	1371	17	1	4	9	1	0	0	1	0	0	0	0	0	3	1	0	0	0	0
"1372"	1372	1372	17	1	5	1	2	1	1	3	1	1	1	0	0	3	1	0	0	0	1
"1373"	1373	1373	17	1	5	2	1	0	0	1	0	0	0	0	0	2	1	1	4	0	0
"1374"	1374	1374	17	1	5	3	2	0	0	2	1	0	0	0	0	3	1	1	0	0	0
"1375"	1375	1375	17	1	5	4	1	0	1	3	1	0	0	0	0	2	1	1	4	0	0
"1376"	1376	1376	17	1	5	5	2	0	0	3	1	0	0	0	0	1	1	1	0	0	0
"1377"	1377	1377	17	1	5	6	2	1	1	3	1	1	1	0	0	2	1	0	1	0	1
"1378"	1378	1378	17	1	5	7	1	0	0	1	0	0	0	0	0	1	1	1	0	0	0
"1379"	1379	1379	17	1	5	8	3	1	1	3	1	1	1	0	0	1	1	0	0	0	1
"1380"	1380	1380	17	1	5	9	1	0	0	1	0	0	0	0	0	3	1	1	0	0	0
"1381"	1381	1381	17	1	1	1	2	0	0	1	1	0	0	0	0	1	1	0	0	0	1
"1382"	1382	1382	17	1	1	2	2	0	0	1	0	0	0	0	0	3	1	1	0	0	0
"1383"	1383	1383	17	1	1	3	1	0	0	1	0	0	0	0	0	1	1	1	0	0	0
"1384"	1384	1384	17	1	1	4	2	0	0	1	0	0	0	0	0	3	1	1	0	0	0
"1385"	1385	1385	17	1	1	5	1	0	0	1	1	0	0	0	0	3	1	0	0	0	1
"1386"	1386	1386	17	1	1	6	2	0	0	1	0	0	0	0	0	2	1	1	4	0	0
"1387"	1387	1387	17	1	1	7	2	0	0	2	0	0	0	0	0	1	1	1	0	0	0
"1388"	1388	1388	17	1	1	8	2	0	0	2	0	0	0	0	0	2	1	1	4	0	0
"1389"	1389	1389	17	1	1	9	1	0	0	1	1	0	0	0	0	2	1	0	2	0	1
"1390"	1390	1390	17	1	2	1	2	0	0	2	1	0	0	0	0	1	1	1	0	0	0
"1391"	1391	1391	17	1	2	2	2	0	0	1	0	0	0	0	0	3	1	1	0	0	0
"1392"	1392	1392	17	1	2	3	1	0	0	1	0	0	0	0	0	1	1	1	0	0	0
"1393"	1393	1393	17	1	2	4	2	0	0	1	0	0	0	0	0	3	1	1	0	0	0
"1394"	1394	1394	17	1	2	5	1	0	0	2	1	0	0	0	0	3	1	1	0	0	0
"1395"	1395	1395	17	1	2	6	2	0	0	1	0	0	0	0	0	2	1	1	4	0	0
"1396"	1396	1396	17	1	2	7	2	0	0	2	0	0	0	0	0	1	1	1	0	0	0
"1397"	1397	1397	17	1	2	8	2	0	0	2	0	0	0	0	0	2	1	1	4	0	0
"1398"	1398	1398	17	1	2	9	1	0	0	3	1	0	0	0	0	2	1	1	4	0	0
"1399"	1399	1399	17	1	3	1	2	0	0	2	1	0	0	0	0	1	1	1	0	0	0
"1400"	1400	1400	17	1	3	2	2	0	0	1	0	0	0	0	0	3	1	1	0	0	0
"1401"	1401	1401	17	1	3	3	1	0	0	1	0	0	0	0	0	1	1	1	0	0	0
"1402"	1402	1402	17	1	3	4	2	0	0	1	1	0	0	0	0	3	1	0	0	0	1
"1403"	1403	1403	17	1	3	5	1	0	0	2	1	0	0	0	0	3	1	1	0	0	0
"1404"	1404	1404	17	1	3	6	2	0	0	1	1	0	0	0	0	2	1	0	2	0	1
"1405"	1405	1405	17	1	3	7	2	0	0	2	0	0	0	0	0	1	1	0	0	0	1
"1406"	1406	1406	17	1	3	8	2	0	0	2	0	0	0	0	0	2	1	1	4	0	0
"1407"	1407	1407	17	1	3	9	1	0	0	3	1	0	0	0	0	2	1	1	4	0	0
"1408"	1408	1408	17	1	4	1	2	0	0	2	1	0	0	0	0	1	1	1	0	0	0
"1409"	1409	1409	17	1	4	2	2	0	0	1	0	0	0	0	0	3	1	1	0	0	0
"1410"	1410	1410	17	1	4	3	1	0	0	1	0	0	0	0	0	1	1	1	0	0	0
"1411"	1411	1411	17	1	4	4	2	0	0	3	1	0	0	0	0	3	1	0	0	0	1
"1412"	1412	1412	17	1	4	5	1	0	0	2	1	0	0	0	0	3	1	1	0	0	0
"1413"	1413	1413	17	1	4	6	2	0	0	3	1	0	0	0	0	2	1	0	2	0	1
"1414"	1414	1414	17	1	4	7	2	0	0	1	1	0	0	0	0	1	1	0	0	0	1
"1415"	1415	1415	17	1	4	8	2	0	0	2	0	0	0	0	0	2	1	1	4	0	0
"1416"	1416	1416	17	1	4	9	1	0	0	3	1	0	0	0	0	2	1	1	4	0	0
"1417"	1417	1417	17	1	5	1	2	0	0	2	1	0	0	0	0	1	1	1	0	0	0
"1418"	1418	1418	17	1	5	2	2	0	0	1	0	0	0	0	0	3	1	1	0	0	0
"1419"	1419	1419	17	1	5	3	1	0	0	1	0	0	0	0	0	1	1	1	0	0	0
"1420"	1420	1420	17	1	5	4	2	0	0	3	1	0	0	0	0	3	1	0	0	0	1
"1421"	1421	1421	17	1	5	5	1	0	0	2	1	0	0	0	0	3	1	1	0	0	0
"1422"	1422	1422	17	1	5	6	2	0	0	2	1	0	0	0	0	2	1	0	2	0	1
"1423"	1423	1423	17	1	5	7	2	0	0	2	1	0	0	0	0	1	1	0	0	0	1
"1424"	1424	1424	17	1	5	8	2	0	0	2	0	0	0	0	0	2	1	1	4	0	0
"1425"	1425	1425	17	1	5	9	1	0	0	3	1	0	0	0	0	2	1	1	4	0	0
"1426"	1426	1426	17	1	6	1	2	0	0	2	1	0	0	0	0	1	1	1	0	0	0
"1427"	1427	1427	17	1	6	2	2	0	0	1	1	0	0	0	0	3	1	0	0	0	1
"1428"	1428	1428	17	1	6	3	1	0	0	1	1	0	0	0	0	1	1	0	0	0	1
"1429"	1429	1429	17	1	6	4	2	0	0	2	1	0	0	0	0	3	1	1	0	0	0
"1430"	1430	1430	17	1	6	5	1	0	0	2	1	0	0	0	0	3	1	1	0	0	0
"1431"	1431	1431	17	1	6	6	2	0	0	3	1	0	0	0	0	2	1	1	4	0	0
"1432"	1432	1432	17	1	6	7	2	0	0	2	1	0	0	0	0	1	1	1	0	0	0
"1433"	1433	1433	17	1	6	8	2	0	0	2	0	0	0	0	0	2	1	0	2	0	1
"1434"	1434	1434	17	1	6	9	1	0	0	3	1	0	0	0	0	2	1	1	4	0	0
"1435"	1435	1435	17	1	1	1	1	0	0	1	1	0	0	0	0	1	1	0	0	0	1
"1436"	1436	1436	17	1	1	2	2	0	0	1	1	0	0	0	0	3	1	0	0	0	1
"1437"	1437	1437	17	1	1	3	2	0	0	1	1	0	0	0	0	2	1	0	2	0	1
"1438"	1438	1438	17	1	1	4	2	0	0	1	0	0	0	0	0	3	1	1	0	0	0
"1439"	1439	1439	17	1	1	5	1	0	0	1	1	0	0	0	0	2	1	0	2	0	1
"1440"	1440	1440	17	1	1	6	1	0	0	1	1	0	0	0	0	1	1	0	0	0	1
"1441"	1441	1441	17	1	1	7	1	0	0	1	0	0	0	0	0	1	1	1	0	0	0
"1442"	1442	1442	17	1	1	8	2	0	0	1	1	0	0	0	0	3	1	0	0	0	1
"1443"	1443	1443	17	1	1	9	2	0	0	1	0	0	0	0	0	2	1	1	4	0	0
"1444"	1444	1444	17	1	2	1	1	1	1	2	1	0	0	0	0	1	0	1	0	0	0
"1445"	1445	1445	17	1	2	2	2	0	0	2	1	0	0	0	0	3	1	1	0	0	0
"1446"	1446	1446	17	1	2	3	2	0	0	2	1	0	0	0	0	2	1	1	4	0	0
"1447"	1447	1447	17	1	2	4	2	0	0	1	0	0	0	0	0	3	1	1	0	0	0
"1448"	1448	1448	17	1	2	5	1	1	1	2	1	0	0	0	0	2	0	1	3	0	0
"1449"	1449	1449	17	1	2	6	1	0	0	3	1	0	0	0	0	1	1	1	0	0	0
"1450"	1450	1450	17	1	2	7	1	0	0	1	0	0	0	0	0	1	1	1	0	0	0
"1451"	1451	1451	17	1	2	8	2	1	0	3	1	0	0	0	0	3	0	1	0	0	0
"1452"	1452	1452	17	1	2	9	2	0	0	1	0	0	0	0	0	2	1	1	4	0	0
"1453"	1453	1453	17	1	3	1	1	1	1	2	1	0	0	0	0	1	0	1	0	0	0
"1454"	1454	1454	17	1	3	2	2	0	0	2	1	0	0	0	0	3	1	1	0	0	0
"1455"	1455	1455	17	1	3	3	2	0	0	2	1	0	0	0	0	2	1	1	4	0	0
"1456"	1456	1456	17	1	3	4	2	0	0	1	0	0	0	0	0	3	1	1	0	0	0
"1457"	1457	1457	17	1	3	5	1	1	1	2	1	0	0	0	0	2	0	1	3	0	0
"1458"	1458	1458	17	1	3	6	1	0	0	3	1	0	0	0	0	1	1	1	0	0	0
"1459"	1459	1459	17	1	3	7	1	0	0	1	0	0	0	0	0	1	1	1	0	0	0
"1460"	1460	1460	17	1	3	8	2	1	0	3	1	0	0	0	0	3	0	1	0	0	0
"1461"	1461	1461	17	1	3	9	2	0	0	1	0	0	0	0	0	2	1	1	4	0	0
"1462"	1462	1462	17	1	4	1	1	0	1	2	1	0	0	0	0	1	0	1	0	0	0
"1463"	1463	1463	17	1	4	2	2	0	0	2	1	0	0	0	0	3	1	1	0	0	0
"1464"	1464	1464	17	1	4	3	2	0	0	2	1	0	0	0	0	2	1	1	4	0	0
"1465"	1465	1465	17	1	4	4	2	0	0	1	0	0	0	0	0	3	1	1	0	0	0
"1466"	1466	1466	17	1	4	5	1	0	1	2	1	0	0	0	0	2	0	1	4	0	0
"1467"	1467	1467	17	1	4	6	1	0	0	3	1	0	0	0	0	1	1	1	0	0	0
"1468"	1468	1468	17	1	4	7	1	0	0	1	0	0	0	0	0	1	1	1	0	0	0
"1469"	1469	1469	17	1	4	8	2	0	0	3	1	0	0	0	0	3	0	1	0	0	0
"1470"	1470	1470	17	1	4	9	2	0	0	1	0	0	0	0	0	2	1	1	4	0	0
"1471"	1471	1471	17	1	5	1	1	0	1	2	1	0	0	0	0	1	0	1	0	0	0
"1472"	1472	1472	17	1	5	2	2	0	0	2	1	0	0	0	0	3	1	1	0	0	0
"1473"	1473	1473	17	1	5	3	2	0	0	2	1	0	0	0	0	2	1	1	4	0	0
"1474"	1474	1474	17	1	5	4	2	0	0	1	0	0	0	0	0	3	1	1	0	0	0
"1475"	1475	1475	17	1	5	5	1	0	1	2	1	0	0	0	0	2	0	1	4	0	0
"1476"	1476	1476	17	1	5	6	1	0	0	3	1	0	0	0	0	1	1	1	0	0	0
"1477"	1477	1477	17	1	5	7	1	0	0	1	0	0	0	0	0	1	1	1	0	0	0
"1478"	1478	1478	17	1	5	8	2	0	0	3	1	0	0	0	0	3	0	1	0	0	0
"1479"	1479	1479	17	1	5	9	2	0	0	1	0	0	0	0	0	2	1	1	4	0	0
"1480"	1480	1480	17	1	6	1	1	1	1	2	1	0	0	0	0	1	0	1	0	0	0
"1481"	1481	1481	17	1	6	2	2	0	0	2	1	0	0	0	0	3	1	1	0	0	0
"1482"	1482	1482	17	1	6	3	2	0	0	2	1	0	0	0	0	2	1	1	4	0	0
"1483"	1483	1483	17	1	6	4	2	0	0	1	0	0	0	0	0	3	1	1	0	0	0
"1484"	1484	1484	17	1	6	5	1	1	1	2	1	0	0	0	0	2	0	1	3	0	0
"1485"	1485	1485	17	1	6	6	1	0	0	3	1	0	0	0	0	1	1	1	0	0	0
"1486"	1486	1486	17	1	6	7	1	0	0	1	0	0	0	0	0	1	1	1	0	0	0
"1487"	1487	1487	17	1	6	8	2	1	0	3	1	0	0	0	0	3	0	1	0	0	0
"1488"	1488	1488	17	1	6	9	2	0	0	1	0	0	0	0	0	2	1	1	4	0	0
"1489"	1489	1489	17	1	1	1	2	0	0	1	0	0	0	0	0	3	1	1	0	0	0
"1490"	1490	1490	17	1	1	2	2	0	0	1	0	0	0	0	0	1	1	1	0	0	0
"1491"	1491	1491	17	1	1	3	1	0	0	1	0	0	0	0	0	2	1	1	4	0	0
"1492"	1492	1492	17	1	1	4	2	0	0	1	0	0	0	0	0	3	1	1	0	0	0
"1493"	1493	1493	17	1	1	5	2	0	0	1	0	0	0	0	0	3	1	1	0	0	0
"1494"	1494	1494	17	1	1	6	1	0	0	1	0	0	0	0	0	2	1	1	4	0	0
"1495"	1495	1495	17	1	1	7	1	0	0	1	0	0	0	0	0	2	1	1	4	0	0
"1496"	1496	1496	17	1	1	8	2	0	0	1	0	0	0	0	0	1	1	1	0	0	0
"1497"	1497	1497	17	1	1	9	2	0	0	1	0	0	0	0	0	1	1	1	0	0	0
"1498"	1498	1498	17	1	2	1	2	0	0	1	0	0	0	0	0	3	1	1	0	0	0
"1499"	1499	1499	17	1	2	2	2	0	0	1	0	0	0	0	0	1	1	1	0	0	0
"1500"	1500	1500	17	1	2	3	1	0	0	1	0	0	0	0	0	2	1	1	4	0	0
"1501"	1501	1501	17	1	2	4	2	0	0	1	0	0	0	0	0	3	1	1	0	0	0
"1502"	1502	1502	17	1	2	5	2	0	0	1	0	0	0	0	0	3	1	1	0	0	0
"1503"	1503	1503	17	1	2	6	1	0	0	1	0	0	0	0	0	2	1	1	4	0	0
"1504"	1504	1504	17	1	2	7	1	0	0	1	0	0	0	0	0	2	1	1	4	0	0
"1505"	1505	1505	17	1	2	8	2	0	0	1	0	0	0	0	0	1	1	1	0	0	0
"1506"	1506	1506	17	1	2	9	2	0	0	1	0	0	0	0	0	1	1	1	0	0	0
"1507"	1507	1507	17	1	3	1	2	0	0	1	1	0	0	0	0	3	1	0	0	0	1
"1508"	1508	1508	17	1	3	2	2	0	0	1	0	0	0	0	0	1	1	1	0	0	0
"1509"	1509	1509	17	1	3	3	1	0	0	1	1	0	0	0	0	2	1	0	2	0	1
"1510"	1510	1510	17	1	3	4	2	0	0	1	0	0	0	0	0	3	1	1	0	0	0
"1511"	1511	1511	17	1	3	5	2	0	0	1	0	0	0	0	0	3	1	1	0	0	0
"1512"	1512	1512	17	1	3	6	1	0	0	1	0	0	0	0	0	2	1	1	4	0	0
"1513"	1513	1513	17	1	3	7	1	0	0	1	0	0	0	0	0	2	1	1	4	0	0
"1514"	1514	1514	17	1	3	8	2	0	0	1	1	0	0	0	0	1	1	0	0	0	1
"1515"	1515	1515	17	1	3	9	2	0	0	1	0	0	0	0	0	1	1	1	0	0	0
"1516"	1516	1516	17	1	4	1	2	0	0	2	1	0	0	0	0	3	1	1	0	0	0
"1517"	1517	1517	17	1	4	2	2	0	0	1	0	0	0	0	0	1	1	1	0	0	0
"1518"	1518	1518	17	1	4	3	1	0	0	3	1	0	0	0	0	2	1	1	4	0	0
"1519"	1519	1519	17	1	4	4	2	0	0	1	0	0	0	0	0	3	1	1	0	0	0
"1520"	1520	1520	17	1	4	5	2	0	0	1	0	0	0	0	0	3	1	1	0	0	0
"1521"	1521	1521	17	1	4	6	1	0	0	1	0	0	0	0	0	2	1	1	4	0	0
"1522"	1522	1522	17	1	4	7	1	0	0	1	0	0	0	0	0	2	1	1	4	0	0
"1523"	1523	1523	17	1	4	8	2	0	0	3	1	0	0	0	0	1	1	1	0	0	0
"1524"	1524	1524	17	1	4	9	2	0	0	1	0	0	0	0	0	1	1	1	0	0	0
"1525"	1525	1525	17	1	5	1	2	0	0	2	1	0	0	0	0	3	1	1	0	0	0
"1526"	1526	1526	17	1	5	2	2	0	0	1	1	0	0	0	0	1	1	0	0	0	1
"1527"	1527	1527	17	1	5	3	1	0	0	3	1	0	0	0	0	2	1	1	4	0	0
"1528"	1528	1528	17	1	5	4	2	1	0	1	1	0	0	0	0	3	1	1	0	0	1
"1529"	1529	1529	17	1	5	5	2	0	0	1	1	0	0	0	0	3	1	0	0	0	1
"1530"	1530	1530	17	1	5	6	1	1	1	1	1	0	0	0	0	2	1	1	1	0	1
"1531"	1531	1531	17	1	5	7	1	0	0	1	1	0	0	0	0	2	1	0	2	0	1
"1532"	1532	1532	17	1	5	8	2	0	0	3	1	0	0	0	0	1	1	1	0	0	0
"1533"	1533	1533	17	1	5	9	2	1	0	1	1	0	0	0	0	1	1	1	0	0	1
