session	period	subject	profit	totalprofit	treatment	party	partybonus	adamspublic	batespublic	info	adamspublicpriv1	adamspublicpriv2	adamspublicpriv3	adamspublicpriv4	batespublicpriv1	batespublicpriv2	batespublicpriv3	batespublicpriv4	adamsguess1	batesguess1	aadamspubtellfirst	abatespubtellfirst	badamspubtellfirst	bbatespubtellfirst	cadamspubtellfirst	cbatespubtellfirst	firstdiscap1	seconddiscap1	thirddiscap1	firstdiscbp1	seconddiscbp1	thirddiscbp1	adamsguess2	batesguess2	aadamspubtell2	abatespubtell2	badamspubtell2	bbatespubtell2	cadamspubtell2	cbatespubtell2	firstdiscap2	seconddiscap2	thirddiscap2	firstdiscbp2	seconddiscbp2	thirddiscbp2	adamsguess3	batesguess3	vote	FIRSTDISCINFO	SECONDDISCINFO	THIRDDISCINFO	FIRSTDISCPARTY	SECONDDISCPARTY	THIRDDISCPARTY
1	1	1	62	62	1	1	10	36	72	1	44.372494				96.959564				54	84	54	87	0	0	94	50	60	58	30	50	65	80	70	40	70	40	0	0	40	70	50	20	20	80	50	70	60	85	0	0.0	2.0	2.0	1.0	2.0	3.0
1	1	2	56	56	1	1	16	36	72	0									50	50	60	50	20	50	60	50	54	100	43	87	50	85	60	80	50	80	80	80	50	80	70	50	45	40	60	85	60	80	1	1.0	0.0	1.0	1.0	1.0	2.0
1	1	3	54	54	1	1	18	36	72	0									100	50	100	50	80	60	80	75	45	20	42	65	65	90	50	60	50	60	60	50	70	50	44	50	89	60	85	65	85	65	0	3.0	4.0	3.0	2.0	3.0	3.0
1	1	4	72	72	1	2	0	36	72	2	22.575382	34.95176			92.1432	80.35381			58	78	58	65	58	65	58	65	20	80	43	50	60	85	50	75	20	50	20	50	20	50	80	60	45	80	50	85	55	65	0	0.0	0.0	1.0	1.0	1.0	2.0
1	1	5	72	72	1	2	0	36	72	1	42.516				70.1622				45	60	43	85	43	85	43	85	45	20	40	65	65	70	45	60	45	85	45	85	45	85	44	50	30	60	85	70	45	65	0	3.0	4.0	2.0	2.0	3.0	3.0
1	1	6	72	72	1	2	0	36	72	3	43.88549	54.08972	24.437521		72.52763	80.84833	50.887		40	65	45	65	45	65	45	65	0	58	32	0	65	60	44	65	44	60	44	60	44	60	0	20	70	0	50	84	45	65	0	1.0	2.0	3.0	1.0	2.0	3.0
1	1	7	89	89	1	3	17	36	72	4	12.092038	19.983881	26.060627	17.073206	88.505684	56.7374	72.34911	69.37152	20	65	20	65	20	65	25	60	58	45	30	65	100	70	45	75	50	85	50	85	40	90	20	42	20	50	95	70	35	80	0	2.0	3.0	2.0	2.0	3.0	3.0
1	1	8	86	86	1	3	14	36	72	3	53.95981	39.720673	53.10335		86.87161	51.853264	47.118122		50	60	42	90	32	60	45	100	94	80	43	50	75	85	75	69	89	65	70	84	42	95	40	70	45	70	50	85	59	69	0	1.0	0.0	1.0	1.0	1.0	2.0
1	1	9	90	90	1	3	18	36	72	2	38.0624	43.587685			70.893524	52.478558			40	70	30	80	40	70	30	70	60	45	25	50	65	60	40	70	20	70	30	70	20	70	50	44	40	80	60	90	70	85	0	0.0	3.0	4.0	1.0	2.0	3.0
1	2	1	96	158	1	1	10	86	90	1	104.110535				113.312				100	100	100	100	0	0	100	97	60	87	85	50	100	100	90	90	70	40	0	0	90	50	100	75	60	100	65	100	100	65	1	0.0	2.0	2.0	1.0	2.0	3.0
1	2	2	102	158	1	1	16	86	90	0									50	50	60	50	50	50	50	50	100	90	89	100	60	55	80	70	100	100	90	50	80	50	70	80	100	40	75	55	80	70	1	1.0	0.0	1.0	1.0	1.0	2.0
1	2	3	104	158	1	1	18	86	90	0									80	60	90	60	90	70	80	70	95	54	75	100	93	99	80	75	80	75	75	70	85	80	90	66	81	100	95	89	80	90	0	3.0	4.0	3.0	2.0	3.0	3.0
1	2	4	86	158	1	2	0	86	90	2	93.24712	84.92163			92.13056	113.456			87	100	87	100	87	100	87	100	50	90	89	50	70	55	70	65	75	65	75	65	75	65	90	75	100	50	70	55	85	60	1	0.0	0.0	1.0	1.0	1.0	2.0
1	2	5	86	158	1	2	0	86	90	1	88.67556				75.50014				89	65	89	55	89	55	89	55	95	54	80	100	93	100	85	65	100	55	100	55	100	55	90	66	70	100	95	100	85	80	0	3.0	4.0	2.0	2.0	3.0	3.0
1	2	6	86	158	1	2	0	86	90	3	98.90745	103.35084	79.08569		108.14921	97.94449	113.158		95	100	95	100	95	100	95	100	0	87	60	0	100	85	90	100	90	100	90	100	90	100	0	75	70	0	65	72	85	100	1	1.0	2.0	3.0	1.0	2.0	3.0
1	2	7	69	158	1	3	17	86	90	4	70.18685	73.638245	64.4287	94.76136	88.78172	99.58472	91.26632	94.55689	74	90	54	93	54	93	64	95	87	60	80	100	90	100	70	95	66	95	66	95	60	90	75	73	60	65	100	100	70	85	0	2.0	3.0	2.0	2.0	3.0	3.0
1	2	8	72	158	1	3	14	86	90	3	91.53155	63.44822	68.208275		102.584	72.99863	87.72333		75	83	75	99	60	85	60	90	100	80	89	97	70	55	95	72	81	89	70	72	73	100	90	85	100	50	80	55	89	65	1	1.0	0.0	1.0	1.0	1.0	2.0
1	2	9	68	158	1	3	18	86	90	2	93.67668	94.28878			105.84933	84.84325			94	100	85	100	80	100	80	100	50	95	64	50	100	95	60	100	60	100	70	100	60	100	80	90	60	50	100	90	70	90	0	0.0	3.0	4.0	1.0	2.0	3.0
1	3	1	82	240	1	1	10	21	92	1	36.841885				100.77552				27	100	37	100	50	50	37	100	85	11	20	50	77	100	50	50	60	80	0	0	50	50	50	65	20	50	65	97	20	95	0	0.0	2.0	2.0	1.0	2.0	3.0
1	3	2	76	234	1	1	16	21	92	0									80	60	85	50	80	50	80	50	37	90	35	100	60	85	50	80	50	50	50	50	60	60	60	40	25	80	80	95	50	80	0	1.0	0.0	1.0	1.0	1.0	2.0
1	3	3	74	232	1	1	18	21	92	0									90	65	90	60	80	65	85	75	20	32	20	97	76	85	40	80	40	80	40	80	40	80	20	19	32	97	94	75	30	80	0	3.0	4.0	3.0	2.0	3.0	3.0
1	3	4	92	250	1	2	0	21	92	2	13.087644	8.986426			75.36931	79.08751			11	77	11	77	11	77	11	77	80	80	35	50	65	85	65	65	65	65	65	65	65	65	50	40	25	50	80	95	45	66	0	0.0	0.0	1.0	1.0	1.0	2.0
1	3	5	92	250	1	2	0	21	92	1	0.749202				99.68162				25	100	35	85	35	85	35	85	20	32	20	97	76	100	30	90	25	95	25	95	25	95	20	19	30	97	94	97	30	90	0	3.0	4.0	2.0	2.0	3.0	3.0
1	3	6	92	250	1	2	0	21	92	3	5.001021	33.719643	33.05671		114.86949	71.693	108.14879		20	97	20	97	20	97	20	97	50	11	23	50	77	95	20	97	20	97	20	97	20	97	0	65	56	0	65	69	20	97	0	1.0	2.0	3.0	1.0	2.0	3.0
1	3	7	109	267	1	3	17	21	92	4	33.61249	36.8043	17.22563	43.1604	82.31914	73.44318	71.098	74.22619	34	79	32	76	32	76	32	76	11	21	20	77	100	100	18	94	19	94	19	94	19	94	65	26	30	65	95	97	40	90	0	2.0	3.0	2.0	2.0	3.0	3.0
1	3	8	106	264	1	3	14	21	92	3	21.967913	35.148	22.142563		95.226555	93.67087	110.91982		33	100	20	85	23	95	21	100	37	85	35	100	75	85	45	92	32	75	56	69	26	95	50	40	25	50	80	95	35	78	0	1.0	0.0	1.0	1.0	1.0	2.0
1	3	9	110	268	1	3	18	21	92	2	18.882795	20.751463			94.11367	106.71445			20	100	20	100	20	100	20	100	80	20	32	50	97	76	25	90	20	97	30	97	30	97	60	20	19	60	97	94	30	95	0	0.0	3.0	4.0	1.0	2.0	3.0
1	4	1	60	300	1	1	10	22	70	1	18.49616				46.469				38	26	60	20	70	30	70	30	85	22	7	40	78	70	85	10	30	70	30	70	30	71	60	80	15	40	70	80	95	25	1	0.0	2.0	2.0	1.0	2.0	3.0
1	4	2	54	288	1	1	16	22	70	0									100	35	85	40	85	40	90	40	60	90	30	20	60	90	50	70	60	40	50	40	50	40	30	20	25	70	80	90	25	75	0	1.0	0.0	1.0	1.0	1.0	2.0
1	4	3	52	284	1	1	18	22	70	0									80	60	90	60	90	60	90	60	22	22	20	78	86	85	20	80	20	80	20	80	20	80	22	23	25	78	86	70	25	75	0	3.0	4.0	3.0	2.0	3.0	3.0
1	4	4	70	320	1	2	0	22	70	2	36.019276	7.003493			77.731	78.11382			22	78	22	78	22	78	22	78	85	90	30	40	60	90	70	70	80	70	80	70	80	70	50	20	25	40	80	90	35	65	0	0.0	0.0	1.0	1.0	1.0	2.0
1	4	5	70	320	1	2	0	22	70	1	33.539				73.71131				35	75	30	90	30	90	30	90	22	22	5	78	86	70	35	75	25	90	25	90	25	90	22	22	22	78	84	82	35	75	0	3.0	4.0	2.0	2.0	3.0	3.0
1	4	6	70	320	1	2	0	22	70	3	-1.493149	16.868692	42.478638		82.17841	86.719	52.549		22	78	22	78	22	78	22	78	70	22	16	30	78	55	22	78	22	78	22	78	22	78	30	80	19	70	70	85	22	78	0	1.0	2.0	3.0	1.0	2.0	3.0
1	4	7	87	354	1	3	17	22	70	4	11.744305	41.00765	13.891109	30.24237	70.5557	51.554523	79.9511	87.518	32	75	22	86	22	86	24	76	22	18	5	78	95	70	16	82	23	86	22	84	26	85	80	21	24	70	95	76	18	83	0	2.0	3.0	2.0	2.0	3.0	3.0
1	4	8	84	348	1	3	14	22	70	3	18.9157	44.83135	39.060574		89.49546	90.01539	54.760796		25	79	20	85	16	55	18	95	70	90	30	30	60	90	65	62	25	70	19	85	21	95	30	20	25	71	80	90	26	76	0	1.0	0.0	1.0	1.0	1.0	2.0
1	4	9	88	356	1	3	18	22	70	2	5.832333	7.534115			68.67	67.912415			7	69	7	70	5	70	5	70	90	22	24	40	78	76	15	70	15	80	22	82	24	76	50	22	26	40	78	85	20	80	0	0.0	3.0	4.0	1.0	2.0	3.0
1	5	1	46	346	1	1	10	36	22	1	45.88618				-2.325649				90	0	56	0	75	10	90	2	60	35	20	40	25	50	65	20	70	30	80	20	70	30	50	70	15	40	40	60	60	20	1	0.0	2.0	2.0	1.0	2.0	3.0
1	5	2	52	340	1	1	16	36	22	0									60	50	60	40	60	40	60	40	56	80	35	0	40	35	65	30	50	40	50	40	60	30	70	60	15	30	20	65	70	50	1	1.0	0.0	1.0	1.0	1.0	2.0
1	5	3	54	338	1	1	18	36	22	0									80	40	80	40	80	40	80	40	54	34	43	10	62	65	60	40	60	20	60	30	60	40	54	33	60	10	86	78	65	40	1	3.0	4.0	3.0	2.0	3.0	3.0
1	5	4	36	356	1	2	0	36	22	2	54.026436	17.250317			38.20605	15.2495			40	35	35	25	35	25	35	25	60	80	35	40	40	35	70	40	70	40	70	40	70	40	50	60	15	40	30	65	35	50	0	0.0	0.0	1.0	1.0	1.0	2.0
1	5	5	36	356	1	2	0	36	22	1	34.72388				35.40681				35	35	35	35	35	35	35	35	54	34	15	10	62	60	35	35	15	65	15	65	15	65	54	31	30	10	87	70	35	35	0	3.0	4.0	2.0	2.0	3.0	3.0
1	5	6	36	356	1	2	0	36	22	3	60.078632	53.949432	48.308884		-2.997167	17.793259	22.50665		54	10	54	10	54	10	54	10	75	35	26	10	25	55	54	10	54	10	54	10	54	10	80	70	55	20	40	64	54	10	1	1.0	2.0	3.0	1.0	2.0	3.0
1	5	7	19	373	1	3	17	36	22	4	57.2021	12.137528	35.752663	40.133274	11.575169	32.76367	-2.057836	32.762108	26	31	34	62	34	62	36	64	35	40	15	25	78	30	20	65	33	86	31	87	34	89	70	37	20	40	95	60	40	85	0	2.0	3.0	2.0	2.0	3.0	3.0
1	5	8	22	370	1	3	14	36	22	3	53.761066	52.685	57.785385		40.634045	33.574326	46.74354		56	45	43	65	26	55	40	78	90	80	35	2	40	35	65	25	60	78	55	64	37	95	70	60	15	30	40	65	52	49	1	1.0	0.0	1.0	1.0	1.0	2.0
1	5	9	18	374	1	3	18	36	22	2	39.451633	14.876945			32.26081	31.100496			30	30	20	50	15	60	15	30	60	54	36	40	10	64	30	50	15	60	30	70	20	60	60	54	34	30	10	89	45	70	0	0.0	3.0	4.0	1.0	2.0	3.0
1	6	1	73	419	1	1	10	56	83	1	61.044094				91.62065				71	82	71	82	50	20	70	20	80	66	40	40	99	90	80	40	76	20	80	35	90	20	80	95	50	40	25	90	75	65	0	0.0	2.0	2.0	1.0	2.0	3.0
1	6	2	67	407	1	1	16	56	83	0									80	45	80	40	80	40	80	40	71	90	65	82	45	100	80	80	80	40	80	40	85	30	76	65	30	20	80	83	75	50	0	1.0	0.0	1.0	1.0	1.0	2.0
1	6	3	65	403	1	1	18	56	83	0									90	45	90	45	80	50	85	65	60	42	46	82	94	86	55	80	65	80	65	80	70	80	60	26	32	82	91	76	65	80	0	3.0	4.0	3.0	2.0	3.0	3.0
1	6	4	83	439	1	2	0	56	83	2	43.047665	74.33273			79.62549	95.99487			65	99	66	99	66	99	66	99	80	80	65	40	50	100	50	100	95	25	95	25	95	25	80	65	30	40	80	83	65	80	0	0.0	0.0	1.0	1.0	1.0	2.0
1	6	5	83	439	1	2	0	56	83	1	80.99334				105.17547				81	100	65	100	65	100	65	100	60	34	30	82	84	85	40	83	30	83	30	83	30	83	60	26	40	82	91	80	40	83	0	3.0	4.0	2.0	2.0	3.0	3.0
1	6	6	83	439	1	2	0	56	83	3	44.377125	60.350937	71.53177		84.83237	75.457146	84.293		60	82	60	82	60	82	60	82	50	66	30	20	99	73	60	82	60	82	60	82	60	82	80	95	24	35	25	62	60	82	0	1.0	2.0	3.0	1.0	2.0	3.0
1	6	7	100	473	1	3	17	56	83	4	58.12791	38.931297	78.32072	33.2508	94.105255	99.71925	62.672935	66.01991	45	84	42	94	34	84	39	84	66	35	40	99	95	85	33	96	26	91	26	91	26	91	95	29	50	25	87	70	22	78	0	2.0	3.0	2.0	2.0	3.0	3.0
1	6	8	97	467	1	3	14	56	83	3	45.74845	79.12923	58.21642		87.488144	77.59442	80.05491		62	83	46	86	30	73	35	95	70	85	65	20	65	100	69	76	32	76	24	62	29	87	90	70	30	20	80	83	56	75	0	1.0	0.0	1.0	1.0	1.0	2.0
1	6	9	101	475	1	3	18	56	83	2	35.028313	55.15765			58.636	87.88322			40	75	40	90	30	85	40	85	80	60	39	40	82	84	50	70	50	90	40	80	50	70	85	60	26	30	82	91	50	70	0	0.0	3.0	4.0	1.0	2.0	3.0
1	7	1	86	505	1	1	10	76	46	1	77.3394				66.68413				87	57	87	57	87	57	90	40	80	91	40	50	71	60	85	55	85	55	90	50	75	55	80	98	30	50	50	50	100	50	1	0.0	2.0	2.0	1.0	2.0	3.0
1	7	2	92	499	1	1	16	76	46	0									80	50	80	50	80	40	80	40	87	90	98	57	50	35	80	40	80	50	80	40	80	40	85	75	100	55	50	35	80	40	1	1.0	0.0	1.0	1.0	1.0	2.0
1	7	3	94	497	1	1	18	76	46	0									90	50	90	50	75	50	75	50	64	64	55	40	87	59	70	50	75	50	75	50	75	45	64	34	42	40	74	72	75	50	1	3.0	4.0	3.0	2.0	3.0	3.0
1	7	4	76	515	1	2	0	76	46	2	68.56	90.796			27.91959	70.68767			91	71	91	71	91	71	91	71	80	75	98	40	50	35	98	50	98	50	98	50	98	50	80	75	100	40	50	35	100	50	1	0.0	0.0	1.0	1.0	1.0	2.0
1	7	5	76	515	1	2	0	76	46	1	97.79966				54.187588				98	54	98	35	98	35	98	35	10	64	50	90	87	50	100	35	100	35	100	35	100	35	10	35	40	90	79	70	95	80	0	3.0	4.0	2.0	2.0	3.0	3.0
1	7	6	76	515	1	2	0	76	46	3	78.04289	61.180264	57.974644		35.544556	54.807846	30.883202		64	40	64	40	10	90	64	40	87	91	42	57	71	69	64	40	64	40	10	90	64	40	90	98	34	50	50	65	64	40	1	1.0	2.0	3.0	1.0	2.0	3.0
1	7	7	59	532	1	3	17	76	46	4	90.481705	72.03941	75.978	84.03158	38.274143	26.088417	26.589676	30.321459	75	35	64	87	64	87	63	89	91	46	50	71	83	45	55	75	34	74	35	79	31	83	98	38	60	50	82	80	51	76	0	2.0	3.0	2.0	2.0	3.0	3.0
1	7	8	62	529	1	3	14	76	46	3	62.90178	80.015305	86.588		33.307663	39.306385	54.998295		75	45	55	59	42	69	46	83	90	75	98	40	50	35	82	36	42	72	34	65	38	82	75	75	100	55	45	35	79	39	1	1.0	0.0	1.0	1.0	1.0	2.0
1	7	9	58	533	1	3	18	76	46	2	54.573864	74.828			51.86114	32.728786			65	45	40	60	50	50	50	45	80	64	63	40	40	89	63	50	30	50	40	70	60	80	80	64	31	40	40	83	50	50	0	0.0	3.0	4.0	1.0	2.0	3.0
1	8	1	53	558	1	1	10	30	63	1	29.780634				46.547367				37	37	40	37	45	35	50	30	80	24	30	30	97	80	65	40	65	40	95	55	85	30	50	85	33	40	50	80	65	55	0	0.0	2.0	2.0	1.0	2.0	3.0
1	8	2	47	546	1	1	16	30	63	0									80	50	80	30	80	30	80	30	40	85	32	37	60	74	40	50	50	40	50	40	50	40	65	50	30	40	40	75	50	60	1	1.0	0.0	1.0	1.0	1.0	2.0
1	8	3	45	542	1	1	18	30	63	0									75	50	85	60	85	60	85	60	33	35	35	53	79	68	40	50	50	40	60	45	60	45	32	24	52	53	97	81	45	60	0	3.0	4.0	3.0	2.0	3.0	3.0
1	8	4	63	578	1	2	0	30	63	2	35.39368	43.98168			80.57561	82.89142			39	82	24	97	39	82	24	97	80	85	32	30	60	74	97	65	85	50	70	65	85	50	50	60	30	40	45	75	30	75	0	0.0	0.0	1.0	1.0	1.0	2.0
1	8	5	63	578	1	2	0	30	63	1	31.562368				73.9726				47	60	32	74	32	74	32	74	33	35	30	53	79	80	47	60	30	75	30	75	30	75	32	30	33	53	76	80	47	80	0	3.0	4.0	2.0	2.0	3.0	3.0
1	8	6	63	578	1	2	0	30	63	3	33.12904	30.137674	34.723743		54.052788	53.85928	51.636654		32	53	33	53	33	53	33	53	45	39	29	35	82	65	32	53	32	53	32	53	32	53	95	70	34	55	65	74	32	53	0	1.0	2.0	3.0	1.0	2.0	3.0
1	8	7	80	612	1	3	17	30	63	4	28.48818	18.966188	49.194	26.907248	83.098114	61.99432	51.835735	75.17344	32	80	35	79	35	79	34	81	24	30	30	97	76	70	28	86	24	97	30	76	30	70	85	46	33	50	89	70	30	56	0	2.0	3.0	2.0	2.0	3.0	3.0
1	8	8	77	606	1	3	14	30	63	3	36.19741	53.50951	45.6167		60.52	74.652596	65.9779		42	65	35	68	29	65	30	76	50	85	32	30	60	74	62	59	52	81	34	74	46	89	85	60	30	30	45	75	52	49	0	1.0	0.0	1.0	1.0	1.0	2.0
1	8	9	81	614	1	3	18	30	63	2	29.929354	39.813602			50.210865	81.096756			35	65	30	80	30	80	30	70	80	33	34	30	53	81	33	65	33	80	33	80	33	70	50	32	30	40	53	70	30	65	0	0.0	3.0	4.0	1.0	2.0	3.0
1	9	1	34	592	1	1	10	52	44	1	62.926575				59.09161				80	50	85	55	85	55	85	20	80	48	67	40	55	30	90	40	90	30	90	30	90	30	80	31	15	50	80	80	80	50	1	0.0	2.0	2.0	1.0	2.0	3.0
1	9	2	28	574	1	1	16	52	44	0									80	50	80	40	80	40	80	40	85	90	46	55	65	68	70	60	80	50	80	50	80	50	90	60	46	30	40	68	70	40	1	1.0	0.0	1.0	1.0	1.0	2.0
1	9	3	26	568	1	1	18	52	44	0									90	60	90	65	85	60	85	65	31	47	56	38	63	68	60	40	60	40	60	40	62	39	31	48	62	38	76	76	50	40	1	3.0	4.0	3.0	2.0	3.0	3.0
1	9	4	44	622	1	2	0	52	44	2	38.106483	56.837223			45.495117	65.73639			48	55	48	55	48	55	48	55	80	85	46	40	60	68	46	68	31	80	31	80	31	80	80	60	46	50	40	68	70	55	1	0.0	0.0	1.0	1.0	1.0	2.0
1	9	5	44	622	1	2	0	52	44	1	46.20282				67.85445				46	68	46	68	46	68	46	68	31	47	67	38	64	30	46	68	46	68	46	68	46	68	31	47	15	38	77	70	46	68	0	3.0	4.0	2.0	2.0	3.0	3.0
1	9	6	44	622	1	2	0	52	44	3	34.87175	27.517347	30.548645		45.2488	39.825165	28.11953		31	38	31	38	31	38	31	38	85	48	43	55	55	63	31	38	31	38	31	38	31	38	90	31	54	30	80	65	31	38	0	1.0	2.0	3.0	1.0	2.0	3.0
1	9	7	61	673	1	3	17	52	44	4	72.73439	46.654705	72.07369	71.186	37.256454	48.00929	28.400846	63.096	70	50	47	63	47	64	47	68	48	54	67	55	76	30	56	66	48	76	47	77	46	78	31	56	20	80	81	60	31	81	0	2.0	3.0	2.0	2.0	3.0	3.0
1	9	8	58	664	1	3	14	52	44	3	63.252377	72.05751	70.52036		35.106	47.660378	30.899374		68	42	56	68	43	63	54	76	85	85	46	20	65	68	59	53	62	76	54	65	56	81	90	62	46	30	39	68	56	51	0	1.0	0.0	1.0	1.0	1.0	2.0
1	9	9	62	676	1	3	18	52	44	2	67.081215	67.05819			20.067049	41.712337			67	31	67	30	67	30	67	30	80	31	47	40	38	68	50	40	15	80	15	70	20	60	80	31	46	50	38	78	50	50	0	0.0	3.0	4.0	1.0	2.0	3.0
1	10	1	58	650	1	1	10	42	68	1	34.362152				88.21869				34	88	20	98	20	98	20	98	80	52	15	40	80	85	24	98	80	30	80	30	90	20	50	82	15	60	43	80	30	90	0	0.0	2.0	2.0	1.0	2.0	3.0
1	10	2	52	626	1	1	16	42	68	0									80	40	80	40	80	40	80	40	20	80	35	98	60	43	30	60	50	60	50	60	50	60	80	60	35	30	50	85	60	65	1	1.0	0.0	1.0	1.0	1.0	2.0
1	10	3	50	618	1	1	18	42	68	0									90	45	80	60	85	55	80	60	43	36	54	63	75	68	60	50	60	50	65	45	70	40	43	24	32	63	79	63	50	60	1	3.0	4.0	3.0	2.0	3.0	3.0
1	10	4	68	690	1	2	0	42	68	2	59.779408	35.833748			87.36726	68.451			52	80	52	80	52	80	52	80	80	85	35	40	55	43	37	95	82	43	82	43	82	43	50	65	35	60	45	85	43	70	0	0.0	0.0	1.0	1.0	1.0	2.0
1	10	5	68	690	1	2	0	42	68	1	35.418076				43.346172				35	43	35	43	35	43	35	43	43	36	15	63	76	85	35	43	35	85	35	85	35	85	43	26	15	63	78	90	35	85	0	3.0	4.0	2.0	2.0	3.0	3.0
1	10	6	68	690	1	2	0	42	68	3	48.770428	42.792168	32.55727		43.04257	82.48392	73.93685		43	63	43	63	43	63	43	63	20	52	32	98	80	58	43	63	43	63	43	63	43	63	80	82	45	30	43	54	43	63	0	1.0	2.0	3.0	1.0	2.0	3.0
1	10	7	85	758	1	3	17	42	68	4	55.672337	21.265541	54.56957	28.70091	84.08642	58.961708	71.092674	56.647614	35	79	36	75	36	76	36	79	52	49	25	80	76	78	38	79	24	79	26	78	23	78	82	67	30	43	75	75	38	78	0	2.0	3.0	2.0	2.0	3.0	3.0
1	10	8	82	746	1	3	14	42	68	3	56.779865	63.281605	25.56516		68.67361	46.03995	47.64581		52	56	54	68	32	58	49	76	20	80	35	98	60	43	46	59	32	63	45	54	67	75	90	70	35	20	40	85	68	46	0	1.0	0.0	1.0	1.0	1.0	2.0
1	10	9	86	762	1	3	18	42	68	2	19.573442	27.211973			81.93157	73.212			20	80	15	85	15	85	25	78	80	43	36	40	63	79	30	70	15	80	15	90	30	75	50	43	23	60	63	78	35	70	0	0.0	3.0	4.0	1.0	2.0	3.0
2	1	1	10	10	2	1	16	45	26	4	20.6131	25.87073	64.06547	46.486908	46.167515	16.204502	35.278126	36.333805	55	40	26	46	64	35	64	36	45	69	12	75	49	87	50	66	45	75	69	49	12	87	48	35	12	40	50	87	50	70	0	0.0	2.0	0.0	1.0	2.0	3.0
2	1	2	7	7	2	1	19	45	26	0									45	75	45	75	45	75	45	75	26	50	40	46	35	11	48	40	48	40	48	40	48	40	45	55	70	75	35	35	48	50	1	4.0	3.0	3.0	1.0	1.0	2.0
2	1	3	15	15	2	1	11	45	26	3	45.004658	62.06194	42.165268		24.62003	41.394867	32.687363		52	50	50	35	20	15	15	10	42	27	77	18	30	46	55	40	55	35	15	19	19	90	42	65	99	21	58	50	55	40	1	1.0	1.0	2.0	2.0	3.0	3.0
2	1	4	26	26	2	2	0	45	26	2	68.21722	69.55875			50.85068	48.131687			60	60	69	49	69	50	70	50	45	20	40	75	15	11	35	50	35	50	40	55	30	50	48	15	70	40	19	35	60	40	1	0.0	3.0	3.0	1.0	1.0	2.0
2	1	5	26	26	2	2	0	45	26	3	33.955738	39.35738	49.990536		2.097966	15.78385	14.933165		40	11	40	11	40	11	40	11	42	25	12	18	32	87	70	35	70	35	70	35	70	35	42	68	12	21	62	87	45	80	0	1.0	1.0	0.0	2.0	3.0	3.0
2	1	6	26	26	2	2	0	45	26	1	51.414295				20.736702				46	18	42	18	42	18	42	18	64	69	37	35	50	0	51	21	42	21	42	21	42	21	69	40	40	49	55	35	51	25	1	4.0	2.0	2.0	1.0	2.0	3.0
2	1	7	43	43	2	3	17	45	26	1	25.253405				35.995754				27	30	27	30	25	32	24	30	70	58	12	50	60	87	62	55	65	58	68	62	62	57	30	65	12	50	36	87	55	62	0	2.0	2.0	0.0	2.0	3.0	3.0
2	1	8	43	43	2	3	17	45	26	2	52.39137	32.793465			20.5416	34.747272			85	30	77	46	37	0	58	60	64	15	40	36	10	11	89	35	99	50	40	35	65	36	12	19	70	87	90	35	45	60	0	4.0	3.0	3.0	1.0	1.0	2.0
2	1	9	42	42	2	3	16	45	26	0									50	50	12	87	12	87	12	87	45	42	24	75	18	30	40	60	12	87	12	87	12	87	48	42	62	40	21	57	30	70	0	0.0	1.0	1.0	1.0	2.0	3.0
2	2	1	55	65	2	1	16	44	71	4	61.249416	55.1294	30.535593	27.480852	93.2967	48.541656	89.7067	54.882	45	68	31	90	61	93	55	49	50	50	25	60	60	76	50	70	50	60	50	60	35	80	32	55	18	71	60	85	45	75	0	0.0	2.0	0.0	1.0	2.0	3.0
2	2	2	52	59	2	1	19	44	71	0									50	60	50	60	50	60	50	60	31	50	90	90	80	60	32	71	32	71	32	71	32	71	50	50	75	60	55	60	38	59	0	4.0	3.0	3.0	1.0	1.0	2.0
2	2	3	60	75	2	1	11	44	71	3	67.28528	24.996843	36.81333		80.96669	81.42876	79.738785		50	80	50	80	0	55	0	56	61	62	28	81	67	72	50	80	50	55	0	100	0	55	24	27	30	81	81	24	46	80	0	1.0	1.0	2.0	2.0	3.0	3.0
2	2	4	71	97	2	2	0	44	71	2	31.843	55.630943			67.781166	82.68725			45	70	50	60	45	75	45	78	50	0	60	60	55	90	55	70	55	60	55	65	55	78	32	0	60	71	100	90	49	85	0	0.0	3.0	3.0	1.0	1.0	2.0
2	2	5	71	97	2	2	0	44	71	3	38.49187	42.51418	20.98694		90.50326	86.293465	50.271915		60	90	90	60	60	90	60	90	61	53	25	81	80	76	60	90	75	60	60	90	65	95	23	27	18	82	79	85	45	87	0	1.0	1.0	0.0	2.0	3.0	3.0
2	2	6	71	97	2	2	0	44	71	1	52.64255				72.51021				45	80	61	81	61	81	14	81	61	45	26	93	75	44	15	80	24	81	23	82	22	83	50	55	25	60	65	81	45	65	1	4.0	2.0	2.0	1.0	2.0	3.0
2	2	7	88	131	2	3	17	44	71	1	46.639				76.362465				27	58	62	67	53	80	55	81	45	24	25	78	94	76	27	81	27	81	27	79	29	77	55	85	18	78	67	85	35	77	0	2.0	2.0	0.0	2.0	3.0	3.0
2	2	8	88	131	2	3	17	44	71	2	27.704521	28.736147			47.26789	69.03347			53	73	28	72	26	44	24	94	55	0	60	49	56	90	28	31	30	24	25	81	85	67	35	0	65	80	55	95	40	80	0	4.0	3.0	3.0	1.0	1.0	2.0
2	2	9	87	129	2	3	16	44	71	0									50	50	25	76	25	76	25	76	50	14	55	60	81	81	20	80	18	85	18	85	18	85	32	22	29	71	83	77	10	99	0	0.0	1.0	1.0	1.0	2.0	3.0
2	3	1	54	119	2	1	16	34	70	4	25.501204	58.99664	13.026245	14.085061	59.399	76.69862	91.056816	80.672485	34	78	59	77	26	59	14	81	68	22	33	51	77	65	51	69	68	51	33	88	33	65	60	50	37	59	25	78	56	73	0	0.0	2.0	0.0	1.0	2.0	3.0
2	3	2	51	110	2	1	19	34	70	0									61	52	68	51	68	51	68	51	59	35	49	77	60	30	60	59	60	59	60	59	60	59	68	30	42	51	72	60	69	60	1	4.0	3.0	3.0	1.0	1.0	2.0
2	3	3	59	134	2	1	11	34	70	3	17.662788	41.741745	18.262		84.94386	58.951	74.49067		42	70	35	60	70	15	70	0	25	45	50	60	93	49	35	72	30	72	10	100	10	71	12	45	30	78	75	56	30	72	0	1.0	1.0	2.0	2.0	3.0	3.0
2	3	4	70	167	2	2	0	34	70	2	11.936174	26.851923			71.444565	85.4776			20	78	22	77	20	78	18	79	68	70	35	51	15	75	50	45	50	25	50	50	45	50	60	10	45	59	100	75	35	79	0	0.0	3.0	3.0	1.0	1.0	2.0
2	3	5	70	167	2	2	0	34	70	3	34.21377	30.37275	45.527428		61.182865	90.4813	87.6058		35	75	49	30	35	75	30	95	25	42	33	60	88	65	35	75	42	60	45	75	25	88	12	37	37	78	77	78	35	75	0	1.0	1.0	0.0	2.0	3.0	3.0
2	3	6	70	167	2	2	0	34	70	1	26.96516				56.809513				30	60	25	60	25	60	25	60	26	20	0	59	78	24	12	80	12	78	12	78	12	78	33	50	5	88	50	25	25	75	0	4.0	2.0	2.0	1.0	2.0	3.0
2	3	7	87	218	2	3	17	34	70	1	34.571285				93.276				55	77	45	93	42	88	35	81	18	49	33	79	74	65	35	77	45	75	37	77	35	70	45	45	37	50	70	78	42	75	0	2.0	2.0	0.0	2.0	3.0	3.0
2	3	8	87	218	2	3	17	34	70	2	24.852953	24.485386			94.597786	49.2338			50	60	50	49	0	24	49	74	14	70	30	81	0	95	29	60	30	56	5	25	45	70	33	10	25	65	71	88	45	80	0	4.0	3.0	3.0	1.0	1.0	2.0
2	3	9	86	215	2	3	16	34	70	0									50	50	33	65	33	65	33	65	68	25	35	51	60	81	40	60	37	78	37	78	37	78	60	12	35	59	78	70	10	90	0	0.0	1.0	1.0	1.0	2.0	3.0
2	4	1	67	186	2	1	16	43	83	4	43.970413	45.102	44.226772	47.693756	67.808	61.891644	103.389595	84.609535	45	82	45	62	44	85	44	85	68	39	31	23	74	79	52	76	68	23	49	84	31	79	44	55	24	55	60	89	52	82	0	0.0	2.0	0.0	1.0	2.0	3.0
2	4	2	64	174	2	1	19	43	83	0									54	60	68	23	70	30	70	30	45	35	58	62	64	65	60	20	44	55	69	55	69	55	68	36	37	23	64	79	66	25	1	4.0	3.0	3.0	1.0	1.0	2.0
2	4	3	72	206	2	1	11	43	83	3	18.460857	52.7405	52.895683		58.75443	68.97586	63.311386		40	64	35	64	35	64	35	64	37	27	77	100	81	62	36	64	36	64	18	100	18	100	25	42	19	80	81	60	36	64	0	1.0	1.0	2.0	2.0	3.0	3.0
2	4	4	83	250	2	2	0	43	83	2	45.366596	29.813635			70.765	86.468			37	78	39	74	37	78	37	79	70	35	49	30	64	98	50	65	55	60	50	67	50	70	69	18	37	55	100	100	45	80	0	0.0	3.0	3.0	1.0	1.0	2.0
2	4	5	83	250	2	2	0	43	83	3	58.332	49.41223	18.89362		78.990814	64.665	97.703		38	75	58	65	49	98	19	98	37	25	31	100	87	79	35	90	37	79	37	100	25	100	25	40	24	80	84	89	35	90	0	1.0	1.0	0.0	2.0	3.0	3.0
2	4	6	83	250	2	2	0	43	83	1	56.792255				86.87538				37	100	37	100	37	100	37	100	44	37	17	85	78	36	35	88	25	80	25	80	25	80	49	50	10	84	67	39	25	90	0	4.0	2.0	2.0	1.0	2.0	3.0
2	4	7	100	318	2	3	17	43	83	1	18.995				105.37526				27	80	27	81	25	87	36	92	37	82	31	79	86	79	42	81	42	81	40	84	62	82	50	44	24	70	63	89	42	81	0	2.0	2.0	0.0	2.0	3.0	3.0
2	4	8	100	318	2	3	17	43	83	2	51.73348	56.82334			86.658	60.891098			5	26	77	62	17	36	82	86	44	35	19	85	64	98	44	73	19	60	10	39	44	63	31	18	25	79	100	100	19	75	1	4.0	3.0	3.0	1.0	1.0	2.0
2	4	9	99	314	2	3	16	43	83	0									50	50	31	79	31	79	31	79	70	37	36	30	100	92	20	80	24	89	24	89	24	89	69	25	62	55	80	82	11	99	0	0.0	1.0	1.0	1.0	2.0	3.0
2	5	1	90	276	2	1	16	74	28	4	95.983795	79.449196	95.39118	91.378876	29.59172	12.572414	6.971791	16.838594	87	24	96	30	79	13	91	17	38	61	9	20	19	85	56	61	38	20	71	29	9	85	88	62	88	15	25	11	75	20	1	0.0	2.0	0.0	1.0	2.0	3.0
2	5	2	93	267	2	1	19	74	28	0									38	44	38	20	38	20	38	20	96	75	66	30	24	9	80	15	88	15	88	15	88	15	38	75	97	20	24	32	84	20	1	4.0	3.0	3.0	1.0	1.0	2.0
2	5	3	85	291	2	1	11	74	28	3	87.73668	72.74872	70.73879		3.327103	22.795612	30.035727		50	28	75	24	75	24	75	24	97	80	93	32	29	38	78	24	75	24	100	1	100	1	80	35	66	15	55	42	75	24	1	1.0	1.0	2.0	2.0	3.0	3.0
2	5	4	74	324	2	2	0	74	28	2	64.360435	55.171			35.138775	12.970524			60	21	61	19	60	21	60	23	38	75	66	20	24	39	53	39	62	25	59	29	53	35	88	100	97	15	1	40	93	21	1	0.0	3.0	3.0	1.0	1.0	2.0
2	5	5	74	324	2	2	0	74	28	3	62.036247	50.554325	65.85423		8.865247	35.510357	39.28381		55	30	66	9	66	39	51	39	97	81	9	32	27	85	97	35	97	32	97	40	55	65	80	37	88	13	57	11	85	45	1	1.0	1.0	0.0	2.0	3.0	3.0
2	5	6	74	324	2	2	0	74	28	1	77.202				51.855824				97	32	97	32	97	32	97	32	79	60	43	13	21	5	95	22	80	15	80	13	80	8	71	59	100	29	29	49	90	45	1	4.0	2.0	2.0	1.0	2.0	3.0
2	5	7	57	375	2	3	17	74	28	1	79.50134				29.103132				80	29	80	29	81	27	82	30	60	60	9	23	50	85	55	37	35	55	37	57	43	52	53	76	11	35	64	84	55	45	1	2.0	2.0	0.0	2.0	3.0	3.0
2	5	8	57	375	2	3	17	74	28	2	68.15351	95.442406			13.087844	24.996033			43	28	93	38	43	5	60	50	91	75	51	17	24	39	60	14	66	42	100	49	76	64	9	100	55	85	1	65	34	26	0	4.0	3.0	3.0	1.0	1.0	2.0
2	5	9	58	372	2	3	16	74	28	0									50	50	9	85	9	85	9	85	38	97	82	20	32	30	60	40	88	11	88	11	11	84	88	80	43	15	8	52	50	50	1	0.0	1.0	1.0	1.0	2.0	3.0
2	6	1	48	324	2	1	16	40	64	4	56.237	33.35227	28.247328	47.94326	43.713116	72.906	50.72053	61.569	40	60	56	44	33	73	48	62	39	47	32	40	70	75	40	67	49	50	57	80	42	85	38	65	11	47	50	93	51	84	0	0.0	2.0	0.0	1.0	2.0	3.0
2	6	2	45	312	2	1	19	40	64	0									39	40	39	40	39	40	39	40	56	33	48	44	66	35	38	45	38	47	38	47	38	47	49	33	50	50	100	60	48	54	0	4.0	3.0	3.0	1.0	1.0	2.0
2	6	3	53	344	2	1	11	40	64	3	16.434294	50.15174	23.609888		79.57776	52.115	54.94941		20	65	33	66	75	25	75	25	15	55	76	75	81	70	33	66	33	100	33	100	33	100	10	45	100	85	72	87	33	66	0	1.0	1.0	2.0	2.0	3.0	3.0
2	6	4	64	388	2	2	0	40	64	2	62.620174	21.37484			86.83	62.514744			40	73	47	70	42	73	39	75	39	75	48	40	25	77	60	52	65	50	60	55	57	60	38	33	80	47	100	40	57	75	0	0.0	3.0	3.0	1.0	1.0	2.0
2	6	5	64	388	2	2	0	40	64	3	47.617565	23.622656	46.806107		76.979	49.190605	72.438835		45	60	48	35	48	77	78	25	10	45	32	75	79	75	40	78	50	60	80	40	35	90	8	42	11	75	68	93	35	80	0	1.0	1.0	0.0	2.0	3.0	3.0
2	6	6	64	388	2	2	0	40	64	1	16.02977				57.04328				13	75	15	75	10	75	5	75	33	42	41	73	73	20	20	85	10	85	8	75	15	78	57	60	53	80	55	0	20	85	0	4.0	2.0	2.0	1.0	2.0	3.0
2	6	7	81	456	2	3	17	40	64	1	59.263				84.306206				59	84	55	81	45	79	57	82	39	51	32	75	66	75	47	72	45	72	42	68	44	70	57	78	11	60	50	93	47	72	0	2.0	2.0	0.0	2.0	3.0	3.0
2	6	8	81	456	2	3	17	40	64	2	52.129738	26.378473			45.13148	40.806416			51	20	76	70	41	20	51	66	48	75	78	62	25	25	73	50	100	87	53	0	78	50	42	33	35	85	100	90	20	75	1	4.0	3.0	3.0	1.0	1.0	2.0
2	6	9	80	452	2	3	16	40	64	0									50	50	32	75	32	75	32	75	39	5	57	40	75	82	11	99	11	93	11	93	11	93	38	15	44	47	78	70	21	99	0	0.0	1.0	1.0	1.0	2.0	3.0
2	7	1	28	352	2	1	16	25	44	4	19.221523	19.960272	49.343227	19.43855	30.599575	22.714966	49.64181	41.034	30	45	19	31	20	23	49	50	50	31	31	20	53	76	42	62	50	20	41	63	41	86	69	42	31	20	30	89	57	78	0	0.0	2.0	0.0	1.0	2.0	3.0
2	7	2	25	337	2	1	19	25	44	0									50	20	50	20	50	20	50	20	19	26	20	31	0	56	69	10	69	20	69	20	69	20	50	50	20	20	2	55	69	10	1	4.0	3.0	3.0	1.0	1.0	2.0
2	7	3	33	377	2	1	11	25	44	3	0.885594	5.229016	13.697552		20.19	27.737883	42.636105		26	0	26	0	26	0	26	0	1	27	47	87	56	84	26	18	50	2	50	2	50	2	3	27	51	80	65	75	26	18	1	1.0	1.0	2.0	2.0	3.0	3.0
2	7	4	44	432	2	2	0	25	44	2	10.424167	37.949			64.1044	47.581			23	57	31	53	27	57	25	60	50	26	20	20	0	56	35	35	42	30	35	35	30	42	69	50	20	20	2	85	45	47	1	0.0	3.0	3.0	1.0	1.0	2.0
2	7	5	44	432	2	2	0	25	44	3	0.470562	46.202312	45.784546		26.594479	53.066	31.241884		20	45	20	56	20	56	10	57	0	29	31	90	52	76	10	77	20	55	20	85	10	85	2	30	31	80	67	89	20	85	0	1.0	1.0	0.0	2.0	3.0	3.0
2	7	6	44	432	2	2	0	25	44	1	6.135137				66.98462				0	75	1	87	0	90	0	88	20	27	3	23	57	34	10	70	3	80	2	80	0	80	41	35	24	63	35	25	45	100	0	4.0	2.0	2.0	1.0	2.0	3.0
2	7	7	61	517	2	3	17	25	44	1	27.488716				55.982464				27	56	27	56	29	52	25	58	25	52	31	60	64	76	27	65	27	65	30	67	42	70	30	35	31	42	82	89	32	65	0	2.0	2.0	0.0	2.0	3.0	3.0
2	7	8	61	517	2	3	17	25	44	2	22.495275	27.242964			58.505875	38.675785			47	34	47	84	3	34	52	64	49	26	10	50	0	57	24	32	51	75	24	25	35	82	41	50	10	86	2	85	16	60	0	4.0	3.0	3.0	1.0	1.0	2.0
2	7	9	60	512	2	3	16	25	44	0									50	50	31	76	31	76	31	76	50	0	25	20	88	58	40	60	31	89	31	89	31	89	69	0	42	20	80	70	11	99	0	0.0	1.0	1.0	1.0	2.0	3.0
3	1	1	103	103	3	1	15	88	47	0									50	50	75	25	75	25	75	25	93	75	1	53	46	25	85	45	90	46	90	46	90	35	75	76	1	25	51	1	75	40	1	4.0	3.0	3.0	1.0	2.0	3.0
3	1	2	98	98	3	1	10	88	47	4	93.424	74.93177	86.901	75.6383	53.07643	25.0669	64.258804	41.91439	82	44	93	53	75	64	87	42	75	63	90	25	70	28	80	28	75	25	63	70	90	28	90	69	79	46	47	44	79	44	1	0.0	1.0	1.0	1.0	1.0	2.0
3	1	3	99	99	3	1	11	88	47	1	63.348				70.065				65	65	63	70	60	70	51	64	70	20	5	45	40	4	67	43	69	47	70	50	54	65	72	1	6	35	25	2	69	38	1	2.0	2.0	0.0	2.0	3.0	3.0
3	1	4	88	88	3	2	0	88	47	3	83.68014	64.541794	74.20456		26.3957	43.956	35.80954		77	46	75	46	75	46	75	46	75	60	90	64	70	28	77	52	76	51	76	51	76	51	63	70	79	70	50	44	71	58	1	4.0	1.0	1.0	1.0	1.0	2.0
3	1	5	88	88	3	2	0	88	47	1	90.058136				28.10171				86	37	90	28	90	28	90	28	75	35	1	50	50	25	86	43	79	44	79	44	79	44	70	15	1	40	20	1	83	43	1	2.0	2.0	3.0	2.0	3.0	3.0
3	1	6	88	88	3	2	0	88	47	2	71.113716	93.846			36.976746	60.537838			75	45	70	45	75	50	65	55	75	75	3	25	46	4	75	40	72	35	70	40	75	38	90	76	2	46	51	2	78	49	1	0.0	3.0	0.0	1.0	2.0	3.0
3	1	7	71	71	3	3	17	88	47	2	66.39158	91.327			37.74573	70.66448			66	54	20	40	35	50	30	50	75	3	1	46	3	25	40	28	1	25	15	20	1	30	76	2	1	51	4	25	30	20	1	3.0	0.0	3.0	2.0	3.0	3.0
3	1	8	74	74	3	3	14	88	47	0									25	15	5	4	3	4	3	3	75	51	90	25	64	28	55	28	6	2	2	2	2	4	90	54	79	35	65	44	65	38	1	0.0	1.0	1.0	1.0	1.0	2.0
3	1	9	76	76	3	3	12	88	47	3	73.53444	94.045525	65.678		57.649086	33.412663	22.070583		55	25	1	25	1	25	1	25	87	65	30	42	55	50	55	25	1	1	1	1	1	25	90	75	1	28	38	30	55	25	1	4.0	2.0	2.0	1.0	2.0	3.0
3	2	1	97	200	3	1	15	82	45	0									90	20	90	20	90	20	85	20	92	91	1	43	42	100	93	40	95	40	93	40	95	42	90	90	1	25	41	100	93	30	1	4.0	3.0	3.0	1.0	2.0	3.0
3	2	2	92	190	3	1	10	82	45	4	92.26421	90.56232	58.60376	67.96409	42.513596	50.296757	60.816063	69.96	77	54	92	43	91	50	68	65	90	95	90	20	31	26	90	27	90	25	95	25	90	25	95	90	80	40	51	44	90	44	1	0.0	1.0	1.0	1.0	1.0	2.0
3	2	3	93	192	3	1	11	82	45	1	94.513				30.563599				90	35	95	31	90	36	81	40	90	20	2	55	50	1	90	49	90	51	87	56	75	60	90	25	40	25	30	6	90	27	1	2.0	2.0	0.0	2.0	3.0	3.0
3	2	4	82	170	3	2	0	82	45	3	88.80967	100.120125	100.78877		60.06779	26.521353	21.171		93	41	91	42	91	42	91	42	91	90	90	50	36	26	90	40	90	41	90	41	90	41	95	87	80	25	56	44	88	40	1	4.0	1.0	1.0	1.0	1.0	2.0
3	2	5	82	170	3	2	0	82	45	1	89.93617				26.018324				85	35	90	26	90	26	90	26	85	15	1	60	40	100	85	44	80	44	80	44	80	44	90	20	1	40	40	100	83	44	1	2.0	2.0	3.0	2.0	3.0	3.0
3	2	6	82	170	3	2	0	82	45	2	78.922	100.93048			68.40728	43.450226			90	55	90	55	85	60	80	50	90	91	1	20	42	1	90	40	90	25	90	40	90	35	93	90	13	40	41	6	90	42	1	0.0	3.0	0.0	1.0	2.0	3.0
3	2	7	65	136	3	3	17	82	45	2	100.53869	84.954			51.194744	50.59944			90	50	20	50	15	40	25	50	91	1	1	42	5	46	50	30	25	30	20	40	10	40	90	13	1	41	25	46	47	50	0	3.0	0.0	3.0	2.0	3.0	3.0
3	2	8	68	142	3	3	14	82	45	0									51	63	2	1	1	1	1	5	85	81	90	20	40	26	75	25	40	6	13	6	13	25	95	75	80	42	60	44	63	40	1	0.0	1.0	1.0	1.0	1.0	2.0
3	2	9	70	146	3	3	12	82	45	3	61.378902	92.118	91.5006		46.466698	28.927471	46.94438		92	46	1	100	1	100	1	46	68	80	25	65	50	50	92	46	1	100	1	100	1	46	90	90	10	25	35	40	92	46	1	4.0	2.0	2.0	1.0	2.0	3.0
3	3	1	89	289	3	1	15	74	62	0									95	20	95	20	95	20	95	20	72	74	62	60	49	75	80	40	80	40	85	40	82	42	95	77	62	50	61	75	94	42	1	4.0	3.0	3.0	1.0	2.0	3.0
3	3	2	84	274	3	1	10	74	62	4	71.811554	88.55619	63.814827	97.31383	55.421	37.999	60.78426	76.299	78	63	72	60	89	59	90	62	95	83	80	20	50	80	82	56	95	50	83	50	80	55	80	72	82	40	57	76	80	57	1	0.0	1.0	1.0	1.0	1.0	2.0
3	3	3	85	277	3	1	11	74	62	1	83.205376				51.776				83	50	83	50	80	53	72	58	70	40	61	55	62	15	87	54	72	57	70	59	60	65	75	20	15	50	55	7	71	52	1	2.0	2.0	0.0	2.0	3.0	3.0
3	3	4	74	244	3	2	0	74	62	3	98.82716	49.44215	87.0319		72.282425	45.14845	38.688		74	47	74	49	74	49	74	49	89	80	80	59	53	80	77	61	77	61	77	61	77	61	83	70	82	50	59	76	77	61	1	4.0	1.0	1.0	1.0	1.0	2.0
3	3	5	74	244	3	2	0	74	62	1	96.120674				71.472				80	80	80	80	80	80	80	80	65	30	62	60	55	75	82	76	82	76	82	76	82	76	75	15	62	50	60	75	82	76	1	2.0	2.0	3.0	2.0	3.0	3.0
3	3	6	74	244	3	2	0	74	62	2	51.463	89.39484			72.31315	52.715748			70	60	70	55	65	60	75	63	95	74	18	20	49	15	75	50	75	50	75	50	75	50	85	77	8	40	61	7	78	52	1	0.0	3.0	0.0	1.0	2.0	3.0
3	3	7	57	193	3	3	17	74	62	2	83.575615	80.721146			75.88266	52.96926			82	64	40	62	30	55	25	62	74	18	62	49	43	75	50	60	20	55	15	60	15	65	77	8	62	61	23	75	55	60	0	3.0	0.0	3.0	2.0	3.0	3.0
3	3	8	60	202	3	3	14	74	62	0									58	62	61	15	18	15	18	43	95	72	80	20	58	80	58	3	15	7	8	7	8	23	82	60	82	42	65	76	45	23	1	0.0	1.0	1.0	1.0	1.0	2.0
3	3	9	62	208	3	3	12	74	62	3	70.126	57.45562	52.794704		76.636444	73.50882	72.96465		62	75	62	75	62	75	62	75	90	75	25	62	63	62	62	75	62	75	62	75	62	75	80	75	15	55	50	65	62	75	0	4.0	2.0	2.0	1.0	2.0	3.0
3	4	1	65	354	3	1	15	50	21	0									88	22	95	26	96	26	88	26	50	50	55	15	24	34	75	25	65	24	65	25	65	26	50	55	10	10	21	40	60	20	1	4.0	3.0	3.0	1.0	2.0	3.0
3	4	2	60	334	3	1	10	50	21	4	49.965557	32.697376	52.62468	66.861694	41.503185	3.187088	5.179142	9.522981	55	15	50	15	50	15	50	15	95	70	52	26	7	18	60	20	50	10	50	11	50	2	65	46	50	24	7	25	60	20	1	0.0	1.0	1.0	1.0	1.0	2.0
3	4	3	61	338	3	1	11	50	21	1	71.13414				4.753791				70	7	70	7	72	9	63	10	44	20	52	8	28	25	50	7	46	7	48	8	57	12	50	30	27	30	50	3	52	15	1	2.0	2.0	0.0	2.0	3.0	3.0
3	4	4	50	294	3	2	0	50	21	3	33.739357	61.351643	42.808628		23.50333	19.848684	30.504		50	25	50	24	50	24	50	24	50	72	52	15	9	18	50	20	55	21	55	21	55	21	50	48	50	11	8	25	50	20	1	4.0	1.0	1.0	1.0	1.0	2.0
3	4	5	50	294	3	2	0	50	21	1	51.93				18.021107				56	20	52	18	52	18	52	18	44	15	69	10	30	11	60	15	50	25	50	25	50	25	55	25	10	25	55	40	60	15	1	2.0	2.0	3.0	2.0	3.0	3.0
3	4	6	50	294	3	2	0	50	21	2	32.116486	56.50775			10.039697	8.49424			44	9	44	8	44	10	50	20	96	50	25	26	24	25	50	28	50	30	55	25	45	28	65	55	17	25	21	3	54	25	1	0.0	3.0	0.0	1.0	2.0	3.0
3	4	7	33	226	3	3	17	50	21	2	47.542294	31.559118			42.468086	4.208921			40	23	20	28	15	30	10	40	50	25	27	24	62	11	45	50	30	50	25	55	20	60	55	17	10	21	8	40	35	35	1	3.0	0.0	3.0	2.0	3.0	3.0
3	4	8	36	238	3	3	14	50	21	0									52	62	52	25	25	25	25	62	88	63	52	26	10	18	22	5	27	3	17	3	17	8	65	57	50	26	12	25	27	8	1	0.0	1.0	1.0	1.0	1.0	2.0
3	4	9	38	246	3	3	12	50	21	3	55.3953	68.62376	27.149126		11.185786	10.730234	34.276768		48	23	55	34	69	11	27	11	50	50	10	15	20	40	45	30	10	40	10	40	10	40	50	45	20	2	28	60	45	35	0	4.0	2.0	2.0	1.0	2.0	3.0
3	5	1	88	442	3	1	15	73	72	0									82	20	64	35	82	20	80	31	70	73	1	74	74	85	72	50	74	60	74	60	74	59	80	72	1	30	74	75	72	62	1	4.0	3.0	3.0	1.0	2.0	3.0
3	5	2	83	417	3	1	10	73	72	4	57.37864	97.08053	65.692375	79.78111	96.615	54.017	96.92668	50.632126	70	75	70	74	70	75	70	75	64	80	52	35	50	82	80	55	80	30	80	30	80	30	74	90	49	60	67	80	90	60	1	0.0	1.0	1.0	1.0	1.0	2.0
3	5	3	84	422	3	1	11	73	72	1	81.01929				49.811676				80	53	80	50	77	53	65	59	90	40	28	65	50	26	85	63	90	67	87	70	79	71	70	10	28	51	50	14	83	56	1	2.0	2.0	0.0	2.0	3.0	3.0
3	5	4	73	367	3	2	0	73	72	3	69.517654	69.729256	78.85161		71.67214	70.84533	80.96011		72	74	73	74	73	74	73	74	70	77	52	75	53	82	72	74	72	74	72	74	72	74	80	87	49	30	70	80	72	55	1	4.0	1.0	1.0	1.0	1.0	2.0
3	5	5	73	367	3	2	0	73	72	1	51.62538				81.77911				49	78	52	82	52	82	52	82	85	30	1	60	60	85	49	78	49	80	49	80	49	80	65	15	1	55	55	75	49	78	0	2.0	2.0	3.0	2.0	3.0	3.0
3	5	6	73	367	3	2	0	73	72	2	93.10733	87.95561			75.97049	61.352505			90	65	90	65	85	60	95	70	82	73	17	20	74	26	80	51	70	51	65	55	75	60	74	72	15	60	74	15	75	60	1	0.0	3.0	0.0	1.0	2.0	3.0
3	5	7	56	282	3	3	17	73	72	2	88.79756	80.51732			48.193	92.2014			85	40	40	50	30	60	20	60	73	17	1	74	34	85	40	65	10	50	15	55	10	60	72	18	1	74	32	75	40	66	0	3.0	0.0	3.0	2.0	3.0	3.0
3	5	8	59	297	3	3	14	73	72	0									57	63	28	26	17	26	17	34	80	65	52	31	59	82	21	24	28	14	15	15	18	32	74	79	49	59	71	80	25	35	1	0.0	1.0	1.0	1.0	1.0	2.0
3	5	9	61	307	3	3	12	73	72	3	61.229	66.571846	66.818474		57.016487	89.33454	72.261215		60	80	1	85	1	85	1	85	70	95	20	75	70	60	55	80	1	75	1	75	1	75	80	75	10	30	60	60	55	80	1	4.0	2.0	2.0	1.0	2.0	3.0
3	6	1	74	516	3	1	15	59	48	0									84	32	95	23	88	26	72	35	83	65	1	23	52	100	75	36	80	39	72	42	65	42	95	64	1	30	48	100	75	42	1	4.0	3.0	3.0	1.0	2.0	3.0
3	6	2	69	486	3	1	10	59	48	4	82.67561	43.859344	58.913692	79.7579	37.730263	62.021393	27.368538	32.51641	67	23	83	23	83	25	83	25	95	55	77	23	47	58	67	25	95	30	88	23	77	25	80	75	80	39	47	50	68	34	1	0.0	1.0	1.0	1.0	1.0	2.0
3	6	3	70	492	3	1	11	59	48	1	53.979				47.209736				55	43	55	47	52	50	46	52	80	20	15	50	50	4	67	47	75	47	73	50	64	55	80	20	16	45	80	15	77	47	1	2.0	2.0	0.0	2.0	3.0	3.0
3	6	4	59	426	3	2	0	59	48	3	75.918	71.0691	48.609776		51.778	60.184513	46.70959		63	53	65	52	65	52	65	52	83	52	77	25	50	58	63	49	64	48	64	48	64	48	88	73	80	23	50	50	68	41	1	4.0	1.0	1.0	1.0	1.0	2.0
3	6	5	59	426	3	2	0	59	48	1	77.00863				57.531124				77	58	77	58	77	58	77	58	80	25	1	50	60	100	77	58	80	50	80	50	80	50	80	15	1	45	75	100	80	47	1	2.0	2.0	3.0	2.0	3.0	3.0
3	6	6	59	426	3	2	0	59	48	2	79.980194	79.81859			62.20032	38.41041			80	50	80	50	80	50	80	50	88	65	7	26	52	4	80	45	80	45	80	45	80	45	72	64	9	42	48	15	74	50	1	0.0	3.0	0.0	1.0	2.0	3.0
3	6	7	42	324	3	3	17	59	48	2	52.934338	39.85317			61.41693	63.30945			30	60	20	50	25	60	20	65	65	7	1	52	25	100	35	80	20	80	15	75	10	85	64	9	1	48	21	100	36	83	0	3.0	0.0	3.0	2.0	3.0	3.0
3	6	8	45	342	3	3	14	59	48	0									56	75	15	4	7	4	7	25	72	46	77	35	52	58	38	25	16	15	9	15	9	21	65	64	80	42	55	50	42	25	1	0.0	1.0	1.0	1.0	1.0	2.0
3	6	9	47	354	3	3	12	59	48	3	67.512245	40.023876	65.13975		24.537085	45.352375	71.06761		1	100	1	100	1	100	1	100	83	80	20	25	50	65	15	95	1	100	1	100	1	100	77	80	10	25	45	85	22	90	1	4.0	2.0	2.0	1.0	2.0	3.0
3	7	1	82	598	3	1	15	67	44	0									99	23	99	32	86	28	65	35	80	68	72	50	31	50	82	30	82	21	79	24	82	48	85	74	55	33	44	55	83	44	1	4.0	3.0	3.0	1.0	2.0	3.0
3	7	2	77	563	3	1	10	67	44	4	67.94946	57.375526	49.67024	55.676575	66.07132	51.92216	29.380867	51.712925	80	50	80	50	80	50	80	50	99	90	82	32	60	35	80	50	85	33	85	33	89	33	82	75	76	21	48	49	80	33	1	0.0	1.0	1.0	1.0	1.0	2.0
3	7	3	78	570	3	1	11	67	44	1	90.26756				59.169				90	60	90	60	87	63	75	66	60	15	42	48	40	36	77	50	75	48	72	51	64	55	70	20	58	40	70	18	72	43	1	2.0	2.0	0.0	2.0	3.0	3.0
3	7	4	67	493	3	2	0	67	44	3	81.12512	63.959583	46.568256		30.778675	35.257526	25.109476		70	31	68	31	68	31	68	31	80	87	82	50	63	35	71	40	74	44	74	44	74	44	85	72	76	33	51	49	71	40	1	4.0	1.0	1.0	1.0	1.0	2.0
3	7	5	67	493	3	2	0	67	44	1	81.57				35.4921				82	35	82	35	82	35	82	35	65	20	72	50	45	50	82	48	76	49	76	49	76	49	65	15	55	45	75	55	76	49	1	2.0	2.0	3.0	2.0	3.0	3.0
3	7	6	67	493	3	2	0	67	44	2	42.30382	80.560486			50.97251	43.692406			60	48	60	48	65	50	55	46	86	68	27	28	31	36	70	40	70	40	65	45	75	38	79	74	29	24	44	18	75	42	1	0.0	3.0	0.0	1.0	2.0	3.0
3	7	7	50	374	3	3	17	67	44	2	85.25824	62.947937			42.872757	51.093132			40	45	15	40	20	45	20	50	68	27	72	31	63	50	60	75	20	70	15	75	20	80	74	29	55	44	25	55	40	50	1	3.0	0.0	3.0	2.0	3.0	3.0
3	7	8	53	395	3	3	14	67	44	0									58	62	42	36	27	36	27	63	65	75	82	35	66	35	42	15	58	18	29	18	29	25	82	64	76	48	55	49	53	28	1	0.0	1.0	1.0	1.0	1.0	2.0
3	7	9	55	409	3	3	12	67	44	3	61.687496	79.30634	70.6989		51.804157	25.97228	56.9887		75	35	72	50	72	50	72	50	80	55	20	50	46	50	55	45	55	55	55	55	55	55	89	75	20	33	38	80	75	40	1	4.0	2.0	2.0	1.0	2.0	3.0
3	8	1	108	706	3	1	15	93	66	0									95	35	81	36	94	45	62	77	100	93	56	60	83	82	95	62	95	62	95	74	65	79	100	91	56	30	70	90	96	74	1	4.0	3.0	3.0	1.0	2.0	3.0
3	8	2	103	666	3	1	10	93	66	4	89.5599	105.67959	99.38416	94.10422	77.656	54.964123	80.48579	63.28916	100	60	100	60	100	60	100	61	81	100	78	36	65	73	100	40	100	30	100	40	99	30	95	95	82	62	70	73	100	60	1	0.0	1.0	1.0	1.0	1.0	2.0
3	8	3	104	674	3	1	11	93	66	1	110.87138				62.701145				100	66	100	65	97	69	87	72	90	20	68	75	50	28	95	70	95	70	92	73	85	76	95	17	62	50	80	25	95	54	1	2.0	2.0	0.0	2.0	3.0	3.0
3	8	4	93	586	3	2	0	93	66	3	114.86158	114.317	108.69676		87.75389	81.501	83.63112		93	83	93	83	93	83	93	83	100	97	78	60	69	73	91	75	91	70	91	70	91	70	100	92	82	40	73	73	91	75	1	4.0	1.0	1.0	1.0	1.0	2.0
3	8	5	93	586	3	2	0	93	66	1	78.32761				72.709305				75	75	78	73	78	73	78	73	95	15	56	80	57	82	82	73	82	73	82	73	82	73	95	20	56	70	82	90	82	69	1	2.0	2.0	3.0	2.0	3.0	3.0
3	8	6	93	586	3	2	0	93	66	2	111.89032	80.308			72.12282	87.23831			95	79	90	75	95	80	100	85	94	93	17	45	83	28	95	75	95	50	95	70	95	75	95	91	28	74	70	25	95	75	1	0.0	3.0	0.0	1.0	2.0	3.0
3	8	7	76	450	3	3	17	93	66	2	70.13331	105.492775			57.18652	44.23119			40	50	20	50	15	57	10	57	93	17	56	83	64	82	45	70	17	80	20	82	17	83	91	28	56	70	77	85	60	95	0	3.0	0.0	3.0	2.0	3.0	3.0
3	8	8	79	474	3	3	14	93	66	0									56	77	68	28	17	28	17	64	62	87	78	77	72	73	56	55	62	25	28	25	28	77	65	85	82	79	76	73	54	62	1	0.0	1.0	1.0	1.0	1.0	2.0
3	8	9	81	490	3	3	12	93	66	3	92.344734	75.04939	76.2231		52.95525	72.909676	82.03387		80	75	56	82	56	82	56	82	100	100	10	61	85	57	85	75	56	90	56	90	56	85	99	95	17	30	75	83	85	75	0	4.0	2.0	2.0	1.0	2.0	3.0
3	9	1	111	817	3	1	15	96	33	0									98	34	99	46	85	29	26	66	100	92	100	40	30	25	96	26	95	26	95	26	95	26	99	92	100	33	32	35	96	30	1	4.0	3.0	3.0	1.0	2.0	3.0
3	9	2	106	772	3	1	10	96	33	4	110.244	118.323	111.75455	72.342	41.388	51.592377	51.579834	23.264	100	41	100	40	100	40	100	41	99	95	97	46	33	37	99	40	99	33	99	35	99	36	95	79	83	26	30	45	99	41	1	0.0	1.0	1.0	1.0	1.0	2.0
3	9	3	107	781	3	1	11	96	33	1	93.91475				29.787827				95	33	95	33	92	34	84	39	75	45	25	31	50	15	82	32	79	30	75	33	66	37	90	20	84	30	35	37	82	32	1	2.0	2.0	0.0	2.0	3.0	3.0
3	9	4	96	682	3	2	0	96	33	3	85.03968	85.62615	114.556		52.870605	20.976576	8.480531		92	30	92	30	92	30	92	30	100	92	97	40	34	37	92	32	92	32	92	32	92	32	99	75	83	35	33	45	92	34	1	4.0	1.0	1.0	1.0	1.0	2.0
3	9	5	96	682	3	2	0	96	33	1	104.774284				37.13924				100	45	97	37	97	37	97	37	77	40	100	34	55	25	83	45	83	45	83	45	83	45	85	15	100	35	30	35	83	45	1	2.0	2.0	3.0	2.0	3.0	3.0
3	9	6	96	682	3	2	0	96	33	2	74.90926	78.23347			35.830677	31.44636			77	34	75	31	77	34	78	36	85	92	15	29	30	15	85	32	90	30	85	35	95	37	95	92	37	26	32	37	90	32	1	0.0	3.0	0.0	1.0	2.0	3.0
3	9	7	79	529	3	3	17	96	33	2	99.14142	110.25229			31.546602	36.834377			50	40	45	50	40	55	35	60	92	15	100	30	38	25	55	40	20	35	15	30	10	35	92	37	100	32	66	35	80	70	1	3.0	0.0	3.0	2.0	3.0	3.0
3	9	8	82	556	3	3	14	96	33	0									58	62	25	15	15	15	15	38	26	84	97	66	39	37	58	22	84	37	37	37	37	66	95	66	83	26	37	45	58	19	1	0.0	1.0	1.0	1.0	1.0	2.0
3	9	9	84	574	3	3	12	96	33	3	71.698875	115.33735	86.076164		25.103857	33.484325	56.555416		100	40	100	25	100	25	100	25	100	78	35	41	36	60	100	40	100	35	100	35	100	35	99	95	10	36	37	35	100	30	1	4.0	2.0	2.0	1.0	2.0	3.0
3	10	1	76	893	3	1	15	57	91	0									98	35	96	20	98	34	96	36	63	46	63	87	70	100	74	64	75	60	74	64	74	60	34	49	10	98	84	100	70	80	1	4.0	3.0	3.0	1.0	2.0	3.0
3	10	2	81	853	3	1	10	57	91	4	63.2028	64.306435	34.3167	66.27972	66.21266	86.89631	90.236565	98.473434	60	78	63	87	66	90	64	98	96	40	56	20	88	91	56	99	34	98	35	89	35	88	75	45	56	60	80	91	56	99	0	0.0	1.0	1.0	1.0	1.0	2.0
3	10	3	80	861	3	1	11	57	91	1	40.29322				86.29215				40	88	40	88	37	91	29	93	45	15	67	75	50	45	42	80	45	80	43	82	38	88	55	30	30	75	74	45	48	77	0	2.0	2.0	0.0	2.0	3.0	3.0
3	10	4	91	773	3	2	0	57	91	3	53.424545	50.665287	40.146713		66.211716	66.53957	83.39366		46	70	46	70	46	70	46	70	66	37	56	90	91	91	47	84	49	84	49	84	49	84	35	43	56	89	82	91	47	85	0	4.0	1.0	1.0	1.0	1.0	2.0
3	10	5	91	773	3	2	0	57	91	1	55.58068				90.89419				56	91	56	91	56	91	56	91	45	10	63	75	55	100	56	91	56	91	56	91	56	91	45	20	10	75	85	100	56	91	0	2.0	2.0	3.0	2.0	3.0	3.0
3	10	6	91	773	3	2	0	57	91	2	41.39791	49.604187			66.85751	101.22553			45	85	45	75	45	75	45	75	98	46	36	34	70	45	55	75	55	75	45	75	50	85	74	49	15	64	84	45	55	75	0	0.0	3.0	0.0	1.0	2.0	3.0
3	10	7	108	637	3	3	17	57	91	2	40.49977	46.232918			100.39939	73.89755			20	50	15	50	10	55	10	60	46	36	63	70	60	100	60	90	30	74	20	85	15	90	49	15	10	84	66	100	20	85	0	3.0	0.0	3.0	2.0	3.0	3.0
3	10	8	105	661	3	3	14	57	91	0									68	11	67	45	36	45	36	60	96	29	56	36	93	91	40	45	30	45	15	45	15	66	74	38	56	60	88	91	37	48	0	0.0	1.0	1.0	1.0	1.0	2.0
3	10	9	103	677	3	3	12	57	91	3	71.44309	65.973114	62.918377		79.33718	108.22845	69.77752		63	100	63	100	63	100	63	100	64	45	10	98	75	60	10	100	10	100	10	100	10	100	35	50	15	88	85	90	12	100	0	4.0	2.0	2.0	1.0	2.0	3.0
3	11	1	21	914	3	1	15	29	36	0									92	36	96	26	97	29	82	32	42	33	1	19	39	50	45	40	39	26	39	32	39	40	46	33	2	12	23	76	48	26	1	4.0	3.0	3.0	1.0	2.0	3.0
3	11	2	26	879	3	1	10	29	36	4	35.30058	41.78824	30.319603	21.587027	30.624	20.660902	52.54125	17.939905	33	30	42	19	44	17	57	16	96	27	36	26	21	18	33	12	46	12	57	12	55	12	39	27	36	26	26	18	35	12	1	0.0	1.0	1.0	1.0	1.0	2.0
3	11	3	25	886	3	1	11	29	36	1	27.324879				20.965258				29	24	27	21	24	26	15	29	25	8	41	30	40	62	27	26	27	26	24	29	17	33	35	5	16	40	60	17	33	42	0	2.0	2.0	0.0	2.0	3.0	3.0
3	11	4	36	809	3	2	0	29	36	3	38.93573	46.479595	12.904265		58.128647	55.27143	15.534039		33	39	33	39	33	39	33	39	44	24	36	17	26	18	33	25	33	23	33	23	33	23	57	24	36	12	29	18	33	23	1	4.0	1.0	1.0	1.0	1.0	2.0
3	11	5	36	809	3	2	0	29	36	1	35.89021				17.906187				36	18	36	18	36	18	36	18	25	10	1	30	35	50	36	18	36	18	36	18	36	18	30	10	2	45	65	76	36	18	0	2.0	2.0	3.0	2.0	3.0	3.0
3	11	6	36	809	3	2	0	29	36	2	30.98561	17.94806			39.491516	18.104916			25	30	25	30	25	30	25	30	97	33	37	29	39	62	30	40	35	40	30	45	30	55	39	33	4	32	23	17	35	30	1	0.0	3.0	0.0	1.0	2.0	3.0
3	11	7	53	690	3	3	17	29	36	2	25.244713	7.564584			16.049911	41.444305			10	35	8	40	10	35	8	40	33	37	1	39	74	50	30	60	5	60	10	65	5	70	33	4	2	23	24	76	25	55	0	3.0	0.0	3.0	2.0	3.0	3.0
3	11	8	50	711	3	3	14	29	36	0									85	99	41	62	37	62	37	74	82	15	36	32	29	18	17	25	16	17	4	17	4	24	39	17	36	40	33	18	15	20	0	0.0	1.0	1.0	1.0	1.0	2.0
3	11	9	48	725	3	3	12	29	36	3	35.772778	19.14724	35.8465		34.87107	47.081867	47.77427		1	50	1	50	1	50	1	50	57	25	8	16	30	40	2	65	2	76	2	76	2	76	55	30	5	12	55	70	3	85	0	4.0	2.0	2.0	1.0	2.0	3.0
3	12	1	111	1025	3	1	15	96	67	0									68	24	88	26	88	26	88	26	100	94	100	33	60	65	96	58	96	58	96	58	100	66	99	96	100	33	60	10	98	42	1	4.0	3.0	3.0	1.0	2.0	3.0
3	12	2	106	985	3	1	10	96	67	4	110.62152	117.420265	99.78838	89.935	63.85574	77.34316	67.429115	42.241505	100	33	100	33	100	33	100	44	88	98	100	26	66	87	99	33	99	33	99	23	99	12	96	96	100	58	65	76	99	33	1	0.0	1.0	1.0	1.0	1.0	2.0
3	12	3	107	993	3	1	11	96	67	1	100.10663				65.67617				100	65	98	66	94	69	85	72	95	35	42	65	45	80	96	65	96	65	93	68	84	73	95	30	89	65	70	45	95	65	1	2.0	2.0	0.0	2.0	3.0	3.0
3	12	4	96	905	3	2	0	96	67	3	114.06115	115.367516	108.60717		60.434296	48.91733	75.91462		94	60	94	60	94	60	94	60	100	94	100	33	69	87	96	60	96	60	96	60	96	60	99	93	100	23	68	76	96	60	1	4.0	1.0	1.0	1.0	1.0	2.0
3	12	5	96	905	3	2	0	96	67	1	109.93175				86.917885				100	89	100	87	100	87	100	87	95	30	100	65	50	65	100	76	100	76	100	76	100	76	95	25	100	65	75	10	100	76	1	2.0	2.0	3.0	2.0	3.0	3.0
3	12	6	96	905	3	2	0	96	67	2	81.1258	96.48269			75.09459	63.59861			87	65	95	65	95	65	100	60	88	94	36	26	60	80	90	67	95	65	95	65	95	60	96	96	46	58	60	45	95	60	1	0.0	3.0	0.0	1.0	2.0	3.0
3	12	7	79	769	3	3	17	96	67	2	107.32533	105.56658			46.90126	46.01039			50	45	35	45	30	50	25	55	94	36	100	60	92	65	45	55	30	70	25	75	20	80	96	46	100	60	63	10	60	50	1	3.0	0.0	3.0	2.0	3.0	3.0
3	12	8	82	793	3	3	14	96	67	0									54	45	42	80	36	80	36	92	88	85	100	26	72	87	62	45	89	45	46	45	46	63	100	84	100	66	73	76	79	52	1	0.0	1.0	1.0	1.0	1.0	2.0
3	12	9	84	809	3	3	12	96	67	3	112.129814	84.28884	98.97254		75.80528	88.43276	75.81447		100	66	100	65	100	65	100	65	100	100	25	44	60	55	100	20	100	10	100	10	100	10	99	95	20	12	60	80	100	5	1	4.0	2.0	2.0	1.0	2.0	3.0
4	1	1	60	60	4	1	14	46	60	1	56.40559				76.387				70	51	70	51	70	51	90	51	60	78	45	69	25	69	70	50	80	55	80	55	90	27	44	63	60	41	40	70	87	51	1	3.0	0.0	2.0	1.0	2.0	3.0
4	1	2	65	65	4	1	19	46	60	3	69.80653	49.223686	69.89416		70.68764	77.79732	59.829		60	69	60	69	65	69	64	68	70	55	27	51	30	37	47	40	44	41	45	40	40	45	80	65	50	55	45	50	65	55	1	1.0	3.0	4.0	1.0	1.0	2.0
4	1	3	63	63	4	1	17	46	60	3	24.201368	52.173454	49.197826		60.58525	55.76649	55.848545		60	35	55	30	60	30	60	35	50	39	56	50	65	73	65	30	65	45	65	30	70	45	60	38	45	40	80	85	60	40	0	0.0	2.0	1.0	2.0	3.0	3.0
4	1	4	46	46	4	2	0	46	60	0									86	62	78	25	80	46	92	33	65	60	27	69	30	37	63	35	63	40	45	50	40	39	45	65	50	40	30	50	52	38	1	3.0	3.0	4.0	1.0	1.0	2.0
4	1	5	46	46	4	2	0	46	60	4	37.184067	59.593735	27.178413	42.16476	62.932182	46.773926	36.867676	35.318	27	35	27	37	27	37	27	37	50	39	45	50	65	69	45	55	50	50	50	50	50	50	65	35	50	35	70	65	65	40	1	0.0	2.0	2.0	2.0	3.0	3.0
4	1	6	46	46	4	2	0	46	60	0									50	50	50	50	50	50	50	50	70	80	56	51	46	43	55	45	60	40	65	35	70	30	80	45	20	55	50	90	60	40	1	1.0	0.0	1.0	1.0	2.0	3.0
4	1	7	27	27	4	3	19	46	60	2	55.696686	37.9041			80.27132	46.299652			45	65	39	65	39	65	40	65	92	15	45	33	43	69	39	60	38	80	35	70	30	65	40	5	40	39	75	65	37	70	0	0.0	1.0	2.0	2.0	3.0	3.0
4	1	8	30	30	4	3	16	46	60	1	31.382296				68.04823				45	55	56	73	56	43	15	43	90	60	27	51	35	37	70	55	45	85	20	90	5	75	90	70	50	27	45	50	45	90	0	1.0	3.0	4.0	1.0	1.0	2.0
4	1	9	30	30	4	3	16	46	60	2	54.066315	66.69815			43.201252	65.90931			57	56	45	69	45	69	45	69	64	50	40	68	50	65	50	65	60	70	50	65	40	65	40	70	30	45	30	65	40	65	0	3.0	0.0	2.0	1.0	2.0	3.0
4	2	1	68	128	4	1	14	34	82	1	33.96317				62.990738				60	50	80	26	80	26	90	53	32	88	28	87	33	100	85	70	90	70	90	70	90	70	57	50	22	47	69	85	90	70	1	3.0	0.0	2.0	1.0	2.0	3.0
4	2	2	63	128	4	1	19	34	82	3	38.87106	50.777454	14.161308		82.10685	67.34157	106.636566		47	92	32	87	35	80	34	85	80	70	34	26	50	68	57	47	57	47	59	45	58	46	90	90	50	70	10	85	70	47	1	1.0	3.0	4.0	1.0	1.0	2.0
4	2	3	65	128	4	1	17	34	82	3	14.693295	54.92829	47.312057		62.60018	57.756554	95.57374		60	40	70	50	70	55	70	50	90	18	34	10	80	27	90	25	90	10	90	10	90	10	85	18	45	25	80	85	85	25	1	0.0	2.0	1.0	2.0	3.0	3.0
4	2	4	82	128	4	2	0	34	82	0									30	88	88	33	77	55	66	44	35	70	51	80	55	93	50	85	50	69	65	85	49	65	59	90	50	45	10	85	72	55	0	3.0	3.0	4.0	1.0	1.0	2.0
4	2	5	82	128	4	2	0	34	82	4	50.941715	54.840775	23.424044	33.896835	67.764	61.090096	93.3184	73.791084	55	93	34	68	51	93	51	93	95	18	28	20	80	100	60	90	50	85	50	85	50	85	85	18	18	25	80	90	45	70	0	0.0	2.0	2.0	2.0	3.0	3.0
4	2	6	82	128	4	2	0	34	82	0									50	50	90	10	95	20	85	25	80	77	34	26	55	62	60	45	85	25	85	25	85	20	90	65	25	70	85	90	45	80	0	1.0	0.0	1.0	1.0	2.0	3.0
4	2	7	101	128	4	3	19	34	82	2	28.62424	28.205397			82.99477	64.77379			18	80	18	80	18	80	28	75	66	49	18	44	62	100	18	80	18	80	18	80	18	80	49	50	20	65	90	80	18	80	0	0.0	1.0	2.0	2.0	3.0	3.0
4	2	8	98	128	4	3	16	34	82	1	49.091824				61.665253				24	87	34	27	34	62	49	62	90	70	51	53	50	93	30	80	45	85	25	90	50	90	90	90	50	70	10	85	55	85	0	1.0	3.0	4.0	1.0	1.0	2.0
4	2	9	98	128	4	3	16	34	82	2	26.372736	17.88157			103.81426	77.627			26	80	28	100	28	100	18	100	34	85	28	85	25	75	24	80	22	85	18	90	20	80	58	85	18	46	20	80	17	80	0	3.0	0.0	2.0	1.0	2.0	3.0
4	3	1	108	236	4	1	14	94	30	1	103.64666				33.049366				80	50	90	50	90	50	90	50	78	20	100	34	30	20	90	50	90	50	90	90	90	50	94	80	100	51	35	20	90	50	1	3.0	0.0	2.0	1.0	2.0	3.0
4	3	2	113	241	4	1	19	94	30	3	73.965706	73.55492	81.42864		41.417614	15.079581	53.801693		78	34	78	34	78	34	78	34	90	100	85	50	0	38	94	51	94	51	94	51	94	51	90	100	85	50	10	25	94	30	1	1.0	3.0	4.0	1.0	1.0	2.0
4	3	3	111	239	4	1	17	94	30	3	80.94745	104.439674	103.66885		17.553808	9.47342	22.036678		100	0	100	0	100	0	100	0	100	80	41	20	20	89	100	0	100	10	100	10	100	10	100	100	35	20	20	100	100	0	1	0.0	2.0	1.0	2.0	3.0	3.0
4	3	4	94	222	4	2	0	94	30	0									10	80	20	30	40	50	60	70	78	100	85	34	0	38	82	33	80	35	80	35	80	35	94	100	85	51	10	25	90	30	1	3.0	3.0	4.0	1.0	1.0	2.0
4	3	5	94	222	4	2	0	94	30	4	97.96555	72.23652	115.14176	88.94891	10.133922	6.524189	9.578369	43.6976	85	25	85	38	85	38	85	38	100	80	100	20	20	20	85	25	85	25	85	25	85	25	100	100	100	20	20	20	85	25	1	0.0	2.0	2.0	2.0	3.0	3.0
4	3	6	94	222	4	2	0	94	30	0									100	20	100	20	100	20	100	20	90	40	25	50	50	90	65	60	100	20	100	20	100	20	90	80	25	90	35	85	80	35	1	1.0	0.0	1.0	1.0	2.0	3.0
4	3	7	75	203	4	3	19	94	30	2	86.3056	76.834236			13.592065	11.828773			82	13	80	20	80	20	80	20	60	100	100	70	41	20	100	20	100	20	100	20	100	20	80	100	100	35	80	20	100	20	1	0.0	1.0	2.0	2.0	3.0	3.0
4	3	8	78	206	4	3	16	94	30	1	118.472				41.410618				100	45	41	89	25	90	100	41	90	100	85	50	0	38	75	55	35	100	25	85	100	80	90	100	85	50	10	25	85	70	0	1.0	3.0	4.0	1.0	1.0	2.0
4	3	9	78	206	4	3	16	94	30	2	76.87355	99.726524			26.199968	41.597073			80	32	100	20	100	20	100	20	78	100	80	34	20	20	92	30	100	20	100	20	100	20	94	100	100	51	20	20	100	20	1	3.0	0.0	2.0	1.0	2.0	3.0
4	4	1	75	311	4	1	14	61	29	1	44.73055				15.842028				70	0	70	0	70	0	70	0	64	23	73	34	89	10	80	25	80	20	80	20	80	20	69	72	100	28	33	20	80	25	1	3.0	0.0	2.0	1.0	2.0	3.0
4	4	2	80	321	4	1	19	61	29	3	64.22827	60.92644	67.195854		26.481089	53.367073	15.282809		64	34	64	34	64	34	64	34	70	80	57	0	10	36	69	28	69	28	69	28	69	28	80	80	63	20	20	34	72	27	1	1.0	3.0	4.0	1.0	1.0	2.0
4	4	3	78	317	4	1	17	61	29	3	53.633	70.352646	70.99808		22.136406	41.660053	31.789688		80	10	80	10	80	15	80	15	100	20	40	20	100	55	85	20	80	20	80	20	80	20	85	20	50	20	100	95	85	20	1	0.0	2.0	1.0	2.0	3.0	3.0
4	4	4	61	283	4	2	0	61	29	0									100	22	23	89	89	23	45	65	64	80	57	34	15	36	72	28	72	33	72	33	72	33	69	80	63	28	20	34	70	30	1	3.0	3.0	4.0	1.0	1.0	2.0
4	4	5	61	283	4	2	0	61	29	4	56.80652	42.825516	64.163315	62.84415	35.761154	44.82145	10.690943	27.704788	57	36	57	36	57	36	61	34	100	20	73	20	100	10	61	34	63	34	63	34	63	34	85	20	100	20	100	20	63	36	1	0.0	2.0	2.0	2.0	3.0	3.0
4	4	6	61	283	4	2	0	61	29	0									100	20	100	20	100	20	20	100	70	89	25	0	23	65	80	20	85	20	85	20	20	85	80	72	45	20	33	85	75	35	1	1.0	0.0	1.0	1.0	2.0	3.0
4	4	7	42	245	4	3	19	61	29	2	43.340614	80.23072			40.880634	20.420862			65	30	20	100	20	100	20	100	45	44	73	65	65	10	65	35	20	100	20	100	20	100	72	44	100	33	85	20	65	35	0	0.0	1.0	2.0	2.0	3.0	3.0
4	4	8	45	251	4	3	16	61	29	1	44.304				39.677				69	75	40	55	25	65	44	65	70	80	61	0	15	34	58	50	50	95	45	85	44	85	80	80	63	20	20	34	79	80	1	1.0	3.0	4.0	1.0	1.0	2.0
4	4	9	45	251	4	3	16	61	29	2	72.83628	38.43318			32.695858	10.390421			73	20	73	10	73	10	73	10	64	20	20	34	100	100	50	35	100	20	100	20	100	20	69	20	20	28	85	100	31	50	0	3.0	0.0	2.0	1.0	2.0	3.0
4	5	1	113	424	4	1	14	99	94	1	111.84382				114.1382				99	90	100	90	100	90	100	90	95	33	100	88	99	60	100	80	100	80	100	80	100	80	98	90	100	80	82	63	100	80	1	3.0	0.0	2.0	1.0	2.0	3.0
4	5	2	118	439	4	1	19	99	94	3	110.072	82.13734	117.066		105.438835	89.386	71.82733		95	88	95	88	95	88	95	88	100	100	95	90	70	90	98	80	98	80	98	80	98	80	100	100	95	80	70	81	98	75	1	1.0	3.0	4.0	1.0	1.0	2.0
4	5	3	116	433	4	1	17	99	94	3	87.414	100.62661	77.79992		82.518196	70.73608	111.77776		100	70	100	70	100	70	100	70	100	70	55	20	100	85	100	70	100	70	100	70	100	70	35	70	75	90	100	95	100	70	1	0.0	2.0	1.0	2.0	3.0	3.0
4	5	4	99	382	4	2	0	99	94	0									22	99	33	99	35	85	29	69	95	100	95	88	70	88	20	99	90	82	90	82	90	82	98	100	95	80	70	85	92	20	1	3.0	3.0	4.0	1.0	1.0	2.0
4	5	5	99	382	4	2	0	99	94	4	117.29628	122.929214	85.02763	115.407616	85.12867	113.468	99.693	110.28313	95	90	95	90	95	88	95	75	100	70	100	20	100	65	95	81	95	81	95	85	98	81	35	75	100	90	100	69	95	81	1	0.0	2.0	2.0	2.0	3.0	3.0
4	5	6	99	382	4	2	0	99	94	0									50	50	100	20	100	20	20	100	100	35	55	90	85	90	45	85	35	90	35	90	20	100	100	90	45	80	82	95	35	90	0	1.0	0.0	1.0	1.0	2.0	3.0
4	5	7	80	325	4	3	19	99	94	2	113.00872	108.658516			101.958755	99.63763			95	90	70	100	70	100	70	100	29	85	100	69	90	70	95	90	70	100	75	100	20	100	90	75	100	82	85	70	95	90	0	0.0	1.0	2.0	2.0	3.0	3.0
4	5	8	83	334	4	3	16	99	94	1	109.65138				109.46975				85	95	55	85	55	90	85	90	100	100	95	90	70	75	90	95	75	95	45	95	75	85	100	100	98	80	70	81	85	90	0	1.0	3.0	4.0	1.0	1.0	2.0
4	5	9	83	334	4	3	16	99	94	2	82.03381	109.08732			69.769	85.61977			90	70	100	60	100	65	100	70	95	20	70	88	100	100	90	70	100	63	100	69	100	70	98	20	20	80	100	100	90	70	1	3.0	0.0	2.0	1.0	2.0	3.0
5	1	1	87	87	5	1	16	71	48	3	59.830677	61.11264	55.710594		53.18424	31.518894	50.048676		55	40	56	40	70	20	80	30	60	85	77	40	35	27	55	40	55	40	100	20	90	15	70	80	80	65	35	30	55	40	1	2.0	4.0	1.0	1.0	2.0	3.0
5	1	2	87	87	5	1	16	71	48	2	63.077183	58.743942			28.927393	29.13459			60	49	60	40	60	20	60	40	56	70	69	40	62	89	70	45	70	65	70	30	70	89	55	72	80	40	64	45	70	50	1	3.0	2.0	0.0	1.0	1.0	2.0
5	1	3	85	85	5	1	14	71	48	2	63.527	82.35654			55.615402	60.1355			70	70	70	62	85	41	80	59	90	70	52	80	32	65	75	59	72	64	75	71	59	38	70	60	52	60	35	88	67	67	1	0.0	1.0	3.0	2.0	3.0	3.0
5	1	4	71	71	5	2	0	71	48	4	73.312744	75.175	91.53	53.089447	39.19019	46.488567	27.738123	24.389605	80	55	85	35	80	60	60	59	60	85	69	20	41	89	75	56	80	35	79	60	65	59	70	75	80	30	71	45	75	56	1	2.0	2.0	0.0	1.0	1.0	2.0
5	1	5	71	71	5	2	0	71	48	0									56	86	69	89	69	89	69	89	85	70	69	85	32	40	74	53	80	45	80	45	80	45	75	55	60	65	34	40	70	56	1	0.0	1.0	1.0	2.0	3.0	3.0
5	1	6	71	71	5	2	0	71	48	0									90	80	90	80	85	85	80	90	70	80	55	20	60	60	70	70	70	60	75	65	70	60	100	79	57	20	60	79	75	75	0	3.0	4.0	3.0	1.0	2.0	3.0
5	1	7	59	59	5	3	12	71	48	1	57.695				27.069344				60	17	70	32	70	32	70	32	60	50	43	59	71	58	60	56	60	35	55	34	56	36	65	50	40	59	88	95	60	40	1	4.0	3.0	1.0	2.0	3.0	3.0
5	1	8	56	56	5	3	15	71	48	3	64.67287	89.41656	63.303		30.918598	51.373375	44.802		55	63	52	65	55	60	50	71	80	80	69	30	59	89	51	85	52	88	57	79	50	88	90	59	80	15	38	45	45	78	1	3.0	2.0	0.0	1.0	1.0	2.0
5	1	9	61	61	5	3	10	71	48	1	69.374756				40.217297				69	50	77	27	69	40	43	58	60	80	70	40	90	32	60	55	80	30	60	40	40	95	70	70	56	89	60	36	40	80	0	2.0	0.0	1.0	1.0	2.0	3.0
5	2	1	115	202	5	1	16	99	26	3	94.206	122.88533	79.55228		41.229244	43.014	50.414814		95	45	95	45	100	30	100	20	90	100	100	10	24	30	95	45	95	45	100	10	100	10	95	95	100	90	24	25	95	55	1	2.0	4.0	1.0	1.0	2.0	3.0
5	2	2	115	202	5	1	16	99	26	2	108.91852	85.534355			22.690733	3.617891			90	15	90	10	90	10	100	5	95	70	47	45	50	78	85	30	95	90	95	90	95	90	95	72	78	45	65	46	90	30	1	3.0	2.0	0.0	1.0	1.0	2.0
5	2	3	113	198	5	1	14	99	26	2	89.847	91.10615			40.55071	30.670965			72	50	70	50	69	51	85	20	75	65	80	70	44	42	71	65	72	65	86	63	79	48	80	85	65	35	44	79	78	68	1	0.0	1.0	3.0	2.0	3.0	3.0
5	2	4	99	170	5	2	0	99	26	4	94.163	111.73414	109.908	98.011795	23.61138	37.43921	29.419	30.062618	90	35	100	24	90	55	60	85	90	69	47	10	51	78	90	60	95	24	85	55	70	56	95	86	78	90	63	46	85	65	1	2.0	2.0	0.0	1.0	1.0	2.0
5	2	5	99	170	5	2	0	99	26	0									46	72	47	78	47	78	47	78	70	66	100	70	43	34	70	48	78	46	78	46	78	46	80	85	90	45	44	40	84	45	1	0.0	1.0	1.0	2.0	3.0	3.0
5	2	6	99	170	5	2	0	99	26	0									70	70	75	70	70	70	70	75	100	90	80	30	55	42	80	60	80	35	80	45	80	40	100	85	55	10	55	77	80	60	1	3.0	4.0	3.0	1.0	2.0	3.0
5	2	7	87	146	5	3	12	99	26	1	74.35019				32.27952				62	44	65	44	66	43	66	43	60	79	85	85	42	50	65	44	85	44	85	44	85	44	70	50	85	56	82	45	65	44	1	4.0	3.0	1.0	2.0	3.0	3.0
5	2	8	84	140	5	3	15	99	26	3	98.86989	118.09519	95.84922		13.362221	17.295324	25.067373		80	42	80	42	80	42	79	42	100	85	47	20	20	78	57	58	65	79	55	77	50	82	100	79	78	10	48	46	60	77	0	3.0	2.0	0.0	1.0	1.0	2.0
5	2	9	89	150	5	3	10	99	26	1	112.421555				33.66881				90	45	100	30	100	34	85	50	100	70	66	5	75	43	100	30	100	25	90	40	85	45	95	80	85	90	40	44	95	30	1	2.0	0.0	1.0	1.0	2.0	3.0
5	3	1	110	312	5	1	16	94	77	3	109.50227	99.33329	115.785		64.37227	73.33956	75.58284		100	75	100	75	100	50	100	50	70	100	60	75	60	90	100	75	100	75	100	75	100	30	85	100	70	75	72	80	100	75	1	2.0	4.0	1.0	1.0	2.0	3.0
5	3	2	110	312	5	1	16	94	77	2	73.161766	70.31145			59.92926	84.980385			70	75	70	75	70	70	90	4	100	80	69	75	68	45	85	75	85	75	90	70	90	20	100	85	67	75	70	79	90	75	1	3.0	2.0	0.0	1.0	1.0	2.0
5	3	3	108	306	5	1	14	94	77	2	78.88553	99.85872			77.20712	81.707855			85	98	80	68	90	92	86	89	70	73	65	50	69	88	75	71	85	70	85	75	79	68	70	85	65	85	70	78	78	80	0	0.0	1.0	3.0	2.0	3.0	3.0
5	3	4	94	264	5	2	0	94	77	4	110.50471	92.70922	99.68129	71.73275	65.841484	64.25334	61.520405	95.282906	80	79	100	60	85	80	95	70	70	90	69	70	92	45	80	78	100	72	85	70	45	55	90	85	67	70	75	79	80	77	1	2.0	2.0	0.0	1.0	1.0	2.0
5	3	5	94	264	5	2	0	94	77	0									67	49	69	45	69	45	69	45	60	73	74	60	69	100	67	79	67	79	67	79	67	79	70	85	50	85	70	95	67	79	0	0.0	1.0	1.0	2.0	3.0	3.0
5	3	6	94	264	5	2	0	94	77	0									60	60	70	50	60	60	50	70	100	85	65	50	80	88	70	85	70	85	70	85	70	85	100	85	65	75	70	75	70	80	1	3.0	4.0	3.0	1.0	2.0	3.0
5	3	7	82	228	5	3	12	94	77	1	84.687164				57.09112				73	69	73	69	73	69	73	69	95	65	50	70	90	100	75	70	85	70	85	70	85	70	45	69	60	55	77	99	76	70	0	4.0	3.0	1.0	2.0	3.0	3.0
5	3	8	79	219	5	3	15	94	77	3	73.67656	75.355484	100.029305		75.97137	61.076878	91.796196		65	88	65	88	65	88	65	90	100	86	69	50	89	45	55	82	65	78	65	75	69	77	100	79	67	30	68	79	65	79	1	3.0	2.0	0.0	1.0	1.0	2.0
5	3	9	84	234	5	3	10	94	77	1	73.85992				89.719864				74	100	60	90	74	100	50	100	90	50	73	4	70	69	74	100	70	80	50	95	60	99	90	70	85	20	85	70	70	100	1	2.0	0.0	1.0	1.0	2.0	3.0
5	4	1	111	423	5	1	16	95	72	3	101.851585	70.66291	89.414		48.133057	95.85511	83.90715		85	75	85	75	90	65	90	60	70	100	75	60	55	95	85	75	85	75	100	55	95	75	85	100	78	60	55	89	85	70	1	2.0	4.0	1.0	1.0	2.0	3.0
5	4	2	111	423	5	1	16	95	72	2	77.75928	70.09928			72.419	64.07638			70	60	70	60	80	70	80	50	85	90	65	75	55	89	85	70	85	60	90	50	90	20	85	90	70	75	72	80	85	70	1	3.0	2.0	0.0	1.0	1.0	2.0
5	4	3	109	415	5	1	14	95	72	2	110.126175	76.87886			47.180695	68.03926			80	55	90	55	86	57	89	60	65	89	90	55	100	75	85	68	90	72	93	68	91	69	90	70	51	70	100	98	86	65	1	0.0	1.0	3.0	2.0	3.0	3.0
5	4	4	95	359	5	2	0	95	72	4	102.42969	91.134	79.28	115.82	69.30519	95.92	66.376335	54.840836	85	55	100	55	92	45	45	75	80	86	65	70	57	89	86	55	100	55	92	45	35	55	90	93	70	50	68	80	86	55	1	2.0	2.0	0.0	1.0	1.0	2.0
5	4	5	95	359	5	2	0	95	72	0									67	89	65	89	65	89	65	89	60	89	69	60	100	97	70	80	70	80	70	80	70	80	90	67	70	70	98	90	70	80	0	0.0	1.0	1.0	2.0	3.0	3.0
5	4	6	95	359	5	2	0	95	72	0									60	60	65	55	60	60	55	65	90	92	90	65	45	75	90	65	90	70	90	70	90	70	100	92	51	55	45	88	90	70	1	3.0	4.0	3.0	1.0	2.0	3.0
5	4	7	83	311	5	3	12	95	72	1	101.185				87.83731				89	100	89	100	89	100	89	100	45	90	60	75	75	100	80	100	70	100	67	98	68	97	35	48	60	55	98	100	70	98	0	4.0	3.0	1.0	2.0	3.0	3.0
5	4	8	80	299	5	3	15	95	72	3	108.848	115.73368	114.44313		65.10555	70.03414	55.894672		100	75	90	75	90	75	90	75	90	89	65	60	60	89	60	98	51	98	51	88	48	98	95	91	70	75	69	80	70	88	1	3.0	2.0	0.0	1.0	1.0	2.0
5	4	9	85	319	5	3	10	95	72	1	71.141				92.96353				71	100	75	95	69	97	60	100	80	55	89	50	65	100	80	100	78	89	70	90	60	100	90	90	68	20	70	97	80	98	1	2.0	0.0	1.0	1.0	2.0	3.0
5	5	1	73	496	5	1	16	81	89	3	70.86653	83.721	88.951645		90.17	82.5974	98.86211		85	90	85	90	95	85	95	85	70	55	98	100	75	60	85	90	85	90	100	80	100	80	85	55	60	100	75	98	85	90	1	2.0	4.0	1.0	1.0	2.0	3.0
5	5	2	73	496	5	1	16	81	89	2	56.97885	93.54765			99.747116	101.25			70	100	70	100	70	100	50	100	85	90	78	90	88	45	80	90	85	100	80	100	70	100	85	68	72	90	93	60	80	90	0	3.0	2.0	0.0	1.0	1.0	2.0
5	5	3	75	490	5	1	14	81	89	2	79.17267	83.43053			105.628555	96.48546			65	89	90	88	60	90	68	92	60	70	68	60	100	92	68	93	68	93	69	97	65	94	70	80	68	90	97	92	70	94	0	0.0	1.0	3.0	2.0	3.0	3.0
5	5	4	89	448	5	2	0	81	89	4	61.22416	73.59274	86.555	61.64524	112.122	110.94586	76.414	77.04213	70	95	55	75	35	95	76	95	70	60	78	100	90	45	65	96	55	75	35	85	25	97	80	69	72	100	97	60	65	97	0	2.0	2.0	0.0	1.0	1.0	2.0
5	5	5	89	448	5	2	0	81	89	0									78	45	78	45	78	45	78	45	60	70	74	60	98	60	78	50	72	60	72	60	72	60	80	78	60	90	99	90	78	50	1	0.0	1.0	1.0	2.0	3.0	3.0
5	5	6	89	448	5	2	0	81	89	0									60	60	60	60	60	60	60	60	95	35	68	85	95	92	70	90	70	90	80	90	80	90	100	35	62	80	85	88	70	85	0	3.0	4.0	3.0	1.0	2.0	3.0
5	5	7	101	412	5	3	12	81	89	1	56.906765				112.39382				70	100	70	100	70	98	70	99	76	68	60	95	99	100	68	98	80	97	78	99	79	98	25	64	60	97	99	100	70	100	0	4.0	3.0	1.0	2.0	3.0	3.0
5	5	8	104	403	5	3	15	81	89	3	70.64156	99.21981	73.4366		112.22236	108.435	74.99692		65	100	68	92	68	92	68	99	95	68	78	85	92	45	64	92	68	92	62	88	64	99	100	65	72	80	94	60	64	88	0	3.0	2.0	0.0	1.0	1.0	2.0
5	5	9	99	418	5	3	10	81	89	1	74.310196				88.605				74	89	98	60	74	60	60	100	50	60	70	100	60	99	65	100	60	98	60	90	60	100	70	80	79	100	90	98	76	98	0	2.0	0.0	1.0	1.0	2.0	3.0
5	6	1	48	544	5	1	16	54	64	3	48.736862	74.473	43.433525		41.19511	48.25	58.625797		60	50	100	50	100	50	100	50	40	25	76	45	65	90	60	50	100	50	100	50	100	50	50	35	50	45	65	79	60	50	1	2.0	4.0	1.0	1.0	2.0	3.0
5	6	2	48	544	5	1	16	54	64	2	31.42449	64.20449			39.76496	50.190193			40	45	40	45	40	40	50	30	100	50	49	50	56	80	50	45	50	45	60	40	70	30	100	55	60	50	60	64	55	45	1	3.0	2.0	0.0	1.0	1.0	2.0
5	6	3	50	540	5	1	14	54	64	2	60.89649	39.12352			74.517815	45.08491			56	60	50	56	56	60	54	53	50	53	46	50	58	88	48	59	55	60	49	60	47	57	55	50	46	85	87	72	55	60	0	0.0	1.0	3.0	2.0	3.0	3.0
5	6	4	64	512	5	2	0	54	64	4	76.90035	53.417442	54.818935	56.02234	78.90959	83.25127	56.54065	54.068653	55	60	25	65	59	76	20	91	40	56	49	40	60	80	55	90	35	65	25	67	20	80	60	49	60	40	60	64	55	80	0	2.0	2.0	0.0	1.0	1.0	2.0
5	6	5	64	512	5	2	0	54	64	0									39	68	49	80	49	80	49	80	50	55	76	50	60	98	55	63	60	64	60	64	60	64	55	48	50	85	89	85	50	85	0	0.0	1.0	1.0	2.0	3.0	3.0
5	6	6	64	512	5	2	0	54	64	0									50	50	50	50	50	50	50	50	100	59	52	50	76	89	70	80	55	85	55	85	55	85	100	25	41	50	67	89	50	80	0	3.0	4.0	3.0	1.0	2.0	3.0
5	6	7	76	488	5	3	12	54	64	1	40.88229				69.864				53	82	53	58	55	60	56	60	20	44	50	91	92	95	50	85	50	87	48	89	50	90	20	46	47	80	89	90	60	90	0	4.0	3.0	1.0	2.0	3.0	3.0
5	6	8	79	482	5	3	15	54	64	3	46.276505	78.206375	76.43331		62.39015	88.10985	83.984		46	88	46	88	52	89	44	92	100	54	49	50	53	80	51	85	46	72	41	89	46	89	100	47	60	50	57	64	46	88	0	3.0	2.0	0.0	1.0	1.0	2.0
5	6	9	74	492	5	3	10	54	64	1	76.181915				77.87424				76	78	76	90	76	98	50	95	50	50	56	30	50	60	50	90	50	79	50	85	47	90	70	55	50	30	85	90	55	90	0	2.0	0.0	1.0	1.0	2.0	3.0
5	7	1	112	656	5	1	16	96	44	3	78.39977	119.622635	89.53834		61.91454	30.646664	48.566063		100	50	100	50	100	50	100	50	80	92	100	25	50	30	100	50	100	50	100	50	100	50	90	92	95	50	50	25	100	50	1	2.0	4.0	1.0	1.0	2.0	3.0
5	7	2	112	656	5	1	16	96	44	2	77.56711	78.74267			40.378574	19.971594			80	25	80	25	85	20	90	5	100	90	50	50	46	50	90	45	90	50	90	45	100	30	100	85	85	50	59	50	90	45	1	3.0	2.0	0.0	1.0	1.0	2.0
5	7	3	110	650	5	1	14	96	44	2	103.962	89.474625			54.34924	37.041874			82	59	90	46	95	60	94	59	50	84	65	50	55	69	87	60	85	59	90	60	87	62	70	87	78	50	55	78	86	65	1	0.0	1.0	3.0	2.0	3.0	3.0
5	7	4	96	608	5	2	0	96	44	4	100.758896	113.05379	91.60163	103.175	43.982414	43.90073	61.843113	39.722153	90	60	92	50	85	35	80	65	85	95	50	20	60	50	90	60	92	50	86	49	80	60	90	90	85	45	60	50	91	59	1	2.0	2.0	0.0	1.0	1.0	2.0
5	7	5	96	608	5	2	0	96	44	0									50	50	50	50	50	50	50	50	50	84	100	50	55	25	85	50	85	50	85	50	85	50	70	89	90	50	56	45	85	50	1	0.0	1.0	1.0	2.0	3.0	3.0
5	7	6	96	608	5	2	0	96	44	0									50	50	50	50	50	50	50	50	100	85	65	50	35	68	70	50	70	50	70	50	70	50	100	86	78	50	49	78	70	50	1	3.0	4.0	3.0	1.0	2.0	3.0
5	7	7	84	572	5	3	12	96	44	1	71.538124				67.0249				84	55	84	55	84	55	84	55	80	57	100	65	72	40	87	58	87	55	89	56	88	56	80	77	90	60	87	45	85	60	1	4.0	3.0	1.0	2.0	3.0	3.0
5	7	8	81	563	5	3	15	96	44	3	105.119	77.802605	74.595		50.36193	44.831074	47.689148		65	65	65	69	65	68	57	72	100	94	50	50	59	50	56	71	78	78	78	78	77	87	100	87	85	50	62	50	87	56	1	3.0	2.0	0.0	1.0	1.0	2.0
5	7	9	86	578	5	3	10	96	44	1	115.89562				45.165455				90	45	100	30	100	25	100	40	90	50	84	5	50	55	90	45	95	25	90	45	90	45	100	70	88	30	50	56	100	45	1	2.0	0.0	1.0	1.0	2.0	3.0
6	1	1	80	80	1	1	19	61	53	1	79.427				76.816536				85	63	85	92	52	51	78	50	100	78	27	20	63	71	86	63	88	20	73	55	28	63	100	84	50	20	40	70	86	56	1	0.0	2.0	2.0	1.0	2.0	3.0
6	1	2	75	75	1	1	14	61	53	0									100	20	100	20	100	20	100	20	85	52	62	92	25	61	72	20	100	20	100	20	100	20	88	55	12	20	26	15	74	20	1	1.0	0.0	1.0	1.0	1.0	2.0
6	1	3	78	78	1	1	17	61	53	0									56	35	52	25	48	36	56	32	67	56	25	70	72	25	56	35	55	26	49	65	62	36	79	84	65	25	54	55	56	36	1	3.0	4.0	3.0	2.0	3.0	3.0
6	1	4	61	61	1	2	0	61	53	2	77.4766	80.94711			59.00979	64.40623			78	61	78	63	79	60	84	54	100	48	62	20	36	61	70	40	84	40	75	43	59	52	100	49	65	20	65	55	74	35	1	0.0	0.0	1.0	1.0	1.0	2.0
6	1	5	61	61	1	2	0	61	53	1	62.497093				60.6225				62	61	62	61	62	61	62	61	69	61	27	59	54	71	65	55	12	15	65	55	34	99	79	70	50	25	55	70	70	55	1	3.0	4.0	2.0	2.0	3.0	3.0
6	1	6	61	61	1	2	0	61	53	3	67.458	68.82511	44.20934		70.315384	59.485184	70.12161		60	60	67	70	69	59	69	70	52	79	25	51	60	25	50	50	79	25	79	25	79	25	73	75	65	55	43	55	65	34	1	1.0	2.0	3.0	1.0	2.0	3.0
6	1	7	50	50	1	3	11	61	53	4	50.425076	39.78609	57.02079	54.617306	65.543724	75.469406	69.60627	32.12195	50	80	56	72	61	54	50	52	84	70	27	54	55	71	82	66	84	54	70	55	27	71	59	65	50	52	55	70	82	60	1	2.0	3.0	2.0	2.0	3.0	3.0
6	1	8	49	49	1	3	12	61	53	3	71.17541	76.59938	67.46958		29.076138	29.894506	67.11717		70	55	25	25	25	25	70	55	78	56	62	50	32	61	65	55	65	55	65	55	65	55	28	62	34	63	36	99	65	55	0	1.0	0.0	1.0	1.0	1.0	2.0
6	1	9	49	49	1	3	12	61	53	2	54.46617	68.61463			49.465084	71.08221			55	60	27	71	27	71	27	71	100	69	50	20	70	52	70	60	50	70	50	70	50	70	100	79	27	20	25	71	70	55	1	0.0	3.0	4.0	1.0	2.0	3.0
6	2	1	109	189	1	1	19	90	62	1	92.58689				70.218765				79	80	73	90	82	50	100	95	100	90	66	20	36	70	85	80	66	70	58	73	58	74	100	94	65	20	19	75	93	80	1	0.0	2.0	2.0	1.0	2.0	3.0
6	2	2	104	179	1	1	14	90	62	0									100	20	100	20	100	20	100	20	73	62	12	90	42	70	67	66	100	20	100	20	100	20	66	82	30	70	42	60	62	61	1	1.0	0.0	1.0	1.0	1.0	2.0
6	2	3	107	185	1	1	17	90	62	0									62	42	62	42	56	35	45	42	100	10	95	40	80	60	82	56	82	42	42	35	62	41	95	89	95	50	46	65	82	46	1	3.0	4.0	3.0	2.0	3.0	3.0
6	2	4	90	151	1	2	0	90	62	2	112.007545	95.355			50.212364	44.81105			100	60	90	36	79	63	89	46	100	56	76	20	35	56	81	46	94	19	83	48	69	41	100	42	76	20	35	50	69	45	1	0.0	0.0	1.0	1.0	1.0	2.0
6	2	5	90	151	1	2	0	90	62	1	75.93525				56.446346				76	56	12	70	76	56	70	12	100	90	66	40	45	70	76	50	30	60	76	50	60	30	95	85	65	50	60	75	79	57	1	3.0	4.0	2.0	2.0	3.0	3.0
6	2	6	90	151	1	2	0	90	62	3	80.51555	107.148346	110.76271		39.949577	85.4405	85.332405		80	40	100	40	100	40	100	40	82	79	95	50	63	60	85	40	95	50	95	50	95	50	58	83	95	73	48	65	83	40	1	1.0	2.0	3.0	1.0	2.0	3.0
6	2	7	79	129	1	3	11	90	62	4	102.43259	100.68022	94.12967	100.72249	56.600792	83.396484	39.827652	51.76433	75	60	10	80	90	45	92	47	89	95	66	46	60	70	87	51	89	46	85	60	66	70	69	95	65	41	65	75	90	60	1	2.0	3.0	2.0	2.0	3.0	3.0
6	2	8	78	127	1	3	12	90	62	3	66.13925	103.77844	112.241		81.15118	55.939743	73.27284		95	65	95	60	95	60	95	60	100	45	70	95	42	12	95	65	95	65	95	65	95	65	58	62	60	74	41	30	80	65	1	1.0	0.0	1.0	1.0	1.0	2.0
6	2	9	78	127	1	3	12	90	62	2	75.234	70.99237			66.47486	67.504585			73	67	66	70	66	70	66	70	100	100	92	20	40	47	73	72	65	75	65	75	65	75	100	95	66	20	50	70	41	95	0	0.0	3.0	4.0	1.0	2.0	3.0
6	3	1	53	242	1	1	19	28	72	1	36.313457				94.10069				57	73	51	72	15	94	15	94	100	29	8	20	70	100	51	71	29	70	12	68	12	68	100	75	15	20	23	100	75	72	0	0.0	2.0	2.0	1.0	2.0	3.0
6	3	2	58	237	1	1	14	28	72	0									100	20	100	20	100	20	100	20	51	72	2	72	46	36	61	59	100	20	100	20	100	20	29	32	2	70	72	37	46	64	1	1.0	0.0	1.0	1.0	1.0	2.0
6	3	3	55	240	1	1	17	28	72	0									72	46	72	46	82	36	77	32	15	21	35	95	90	60	38	72	32	72	38	92	46	88	15	17	35	94	80	60	42	82	0	3.0	4.0	3.0	2.0	3.0	3.0
6	3	4	72	223	1	2	0	28	72	2	27.918304	18.733213			65.20982	79.055756			25	76	29	70	32	64	17	76	100	82	6	20	36	55	75	40	75	23	57	37	62	51	100	38	4	20	92	46	63	60	1	0.0	0.0	1.0	1.0	1.0	2.0
6	3	5	72	223	1	2	0	28	72	1	5.934314				55.36227				7	50	2	36	6	55	6	55	15	31	8	95	79	100	10	50	2	37	4	46	10	55	15	20	15	94	75	100	15	70	0	3.0	4.0	2.0	2.0	3.0	3.0
6	3	6	72	223	1	2	0	28	72	3	36.231796	14.597907	21.13341		83.807755	94.81171	82.45142		40	80	15	95	15	95	15	95	15	32	35	94	64	60	40	83	15	94	15	94	15	94	12	57	35	68	37	60	37	78	0	1.0	2.0	3.0	1.0	2.0	3.0
6	3	7	83	212	1	3	11	28	72	4	18.940266	16.752398	42.89043	30.239082	93.164505	84.714386	69.13222	58.04568	20	79	21	90	31	79	40	68	17	35	8	76	60	100	20	80	17	80	20	75	15	80	62	35	15	51	60	100	39	75	0	2.0	3.0	2.0	2.0	3.0	3.0
6	3	8	84	211	1	3	12	28	72	3	12.627119	31.311573	39.55857		55.115715	68.36293	51.227085		35	60	35	60	35	60	35	60	15	77	6	94	32	55	35	60	35	60	35	60	35	60	12	46	10	68	88	55	35	60	0	1.0	0.0	1.0	1.0	1.0	2.0
6	3	9	84	211	1	3	12	28	72	2	7.583704	26.670515			66.59458	89.213			8	100	8	100	8	100	8	100	100	15	40	20	95	68	15	100	15	100	15	100	15	100	100	15	15	20	94	80	15	100	0	0.0	3.0	4.0	1.0	2.0	3.0
6	4	1	58	300	1	1	19	41	77	1	47.869637				80.882904				33	65	33	65	48	81	48	81	100	37	20	20	96	81	33	67	20	81	37	95	20	95	100	46	18	20	69	100	35	67	1	0.0	2.0	2.0	1.0	2.0	3.0
6	4	2	63	300	1	1	14	41	77	0									100	20	100	20	100	20	100	20	33	36	79	65	72	20	49	52	100	20	100	20	100	20	20	46	70	81	72	10	40	65	0	1.0	0.0	1.0	1.0	1.0	2.0
6	4	3	60	300	1	1	17	41	77	0									28	72	36	72	28	77	38	82	18	30	55	74	80	70	46	72	46	72	56	89	68	56	31	40	55	81	80	70	78	72	1	3.0	4.0	3.0	2.0	3.0	3.0
6	4	4	77	300	1	2	0	41	77	2	54.621	52.47967			59.44615	85.18668			49	63	37	96	48	67	64	84	100	28	47	20	77	71	53	60	46	69	35	51	53	45	100	56	35	20	89	75	60	68	0	0.0	0.0	1.0	1.0	1.0	2.0
6	4	5	77	300	1	2	0	41	77	1	46.85583				70.637115				47	71	79	20	47	71	47	71	18	30	20	74	80	81	20	80	70	10	35	75	35	75	31	40	18	81	80	100	35	75	0	3.0	4.0	2.0	2.0	3.0	3.0
6	4	6	77	300	1	2	0	41	77	3	17.723045	27.227568	50.056454		74.11082	65.84756	73.11662		43	66	18	74	18	74	18	74	48	48	55	81	67	70	43	81	31	81	31	81	31	81	37	35	55	95	51	70	43	81	0	1.0	2.0	3.0	1.0	2.0	3.0
6	4	7	88	300	1	3	11	41	77	4	18.55313	62.010414	17.759817	62.752506	71.37741	75.02476	100.24353	100.11071	40	69	30	80	30	80	30	80	64	55	20	84	70	81	40	80	40	80	40	80	40	80	53	55	18	45	70	100	40	80	0	2.0	3.0	2.0	2.0	3.0	3.0
6	4	8	89	300	1	3	12	41	77	3	35.162346	27.7589	62.998695		86.84658	76.62564	64.14279		55	70	55	70	55	70	55	70	48	38	47	81	82	71	55	70	55	70	55	70	55	70	20	68	35	95	56	75	55	70	0	1.0	0.0	1.0	1.0	1.0	2.0
6	4	9	89	300	1	3	12	41	77	2	52.800545	24.732737			56.365	53.648495			15	81	20	81	20	81	20	81	100	18	30	20	74	80	18	100	18	100	18	100	18	100	100	31	40	20	81	80	20	100	0	0.0	3.0	4.0	1.0	2.0	3.0
6	5	1	47	347	1	1	19	41	66	1	46.59259				68.46233				27	58	27	58	47	67	47	68	100	41	20	20	65	95	27	58	41	65	20	65	41	95	100	69	20	20	40	100	65	35	1	0.0	2.0	2.0	1.0	2.0	3.0
6	5	2	52	352	1	1	14	41	66	0									60	60	100	20	100	20	100	20	27	89	68	58	42	37	63	47	100	20	100	20	100	20	41	50	97	65	85	55	65	57	1	1.0	0.0	1.0	1.0	1.0	2.0
6	5	3	49	349	1	1	17	41	66	0									41	77	89	42	75	36	72	26	25	30	55	90	85	65	50	85	50	85	36	92	42	77	23	35	55	84	80	65	45	82	0	3.0	4.0	3.0	2.0	3.0	3.0
6	5	4	66	366	1	2	0	41	66	2	45.986763	29.55534			57.506	66.00959			39	60	41	65	23	76	51	48	100	75	40	20	36	60	70	45	69	40	52	56	63	29	100	36	30	20	92	80	51	75	0	0.0	0.0	1.0	1.0	1.0	2.0
6	5	5	66	366	1	2	0	41	66	1	43.42057				55.72184				40	60	68	37	40	60	40	60	25	30	20	90	85	95	30	90	97	55	30	80	30	80	23	35	20	84	80	100	30	85	0	3.0	4.0	2.0	2.0	3.0	3.0
6	5	6	66	366	1	2	0	41	66	3	63.701	55.62282	25.48453		77.37338	90.07248	57.73943		40	80	25	90	25	90	25	90	47	23	55	67	76	65	40	80	23	84	23	84	23	84	20	52	55	65	56	65	40	80	0	1.0	2.0	3.0	1.0	2.0	3.0
6	5	7	77	377	1	3	11	41	66	4	40.59093	23.49912	34.05066	35.682087	70.38614	78.99021	52.73894	90.781334	30	85	30	85	30	85	30	85	51	55	20	48	65	95	30	85	35	80	35	80	35	80	63	55	20	29	65	100	50	70	0	2.0	3.0	2.0	2.0	3.0	3.0
6	5	8	78	378	1	3	12	41	66	3	39.279	62.433346	63.44138		48.684162	60.373173	78.04165		55	65	55	65	55	65	55	65	47	72	40	68	26	60	55	65	55	65	55	65	55	65	41	42	30	95	77	80	45	70	0	1.0	0.0	1.0	1.0	1.0	2.0
6	5	9	78	378	1	3	12	41	66	2	53.7371	40.261917			75.4439	59.183			25	95	20	95	20	95	20	95	100	25	30	20	90	85	15	100	20	100	20	100	20	100	100	23	35	20	84	80	20	95	0	0.0	3.0	4.0	1.0	2.0	3.0
6	6	1	87	434	1	1	19	68	71	1	49.49082				80.67825				69	100	69	100	49	81	49	81	100	76	72	20	59	70	74	62	76	59	76	72	72	20	100	85	85	20	48	55	74	62	1	0.0	2.0	2.0	1.0	2.0	3.0
6	6	2	82	434	1	1	14	68	71	0									60	60	100	20	100	20	100	20	69	85	80	100	26	62	70	61	100	20	100	20	100	20	76	92	79	59	35	55	8	50	1	1.0	0.0	1.0	1.0	1.0	2.0
6	6	3	85	434	1	1	17	68	71	0									56	72	85	26	92	35	77	42	100	85	70	35	59	70	92	45	92	35	45	26	70	42	100	85	70	30	70	70	92	55	1	3.0	4.0	3.0	2.0	3.0	3.0
6	6	4	68	434	1	2	0	68	71	2	60.662666	92.95533			52.41574	69.66691			85	63	76	59	58	64	85	75	100	92	80	20	35	62	90	50	85	48	90	29	79	40	100	45	79	20	26	55	75	45	1	0.0	0.0	1.0	1.0	1.0	2.0
6	6	5	68	434	1	2	0	68	71	1	72.85754				66.97149				79	60	80	62	80	62	29	44	100	85	72	35	59	70	79	55	79	55	79	55	24	67	100	85	85	30	65	55	77	52	1	3.0	4.0	2.0	2.0	3.0	3.0
6	6	6	68	434	1	2	0	68	71	3	63.098152	90.57114	91.50932		58.09944	79.5338	53.095097		80	60	100	35	100	35	100	35	49	58	70	81	64	70	80	60	100	30	100	30	100	30	76	90	70	72	29	70	80	50	1	1.0	2.0	3.0	1.0	2.0	3.0
6	6	7	57	434	1	3	11	68	71	4	50.719616	86.573814	84.379364	65.54422	61.610294	70.60059	67.156075	67.10118	85	69	85	59	85	59	85	59	85	70	72	75	70	70	90	59	85	70	85	65	75	64	79	70	85	40	70	55	90	57	1	2.0	3.0	2.0	2.0	3.0	3.0
6	6	8	56	434	1	3	12	68	71	3	70.5817	70.97859	68.52743		61.68546	88.05159	60.72986		70	70	70	70	70	70	70	70	49	77	29	81	42	44	70	72	70	70	70	70	70	70	72	70	24	20	42	67	70	70	1	1.0	0.0	1.0	1.0	1.0	2.0
6	6	9	56	434	1	3	12	68	71	2	63.595	80.601295			51.852158	69.57449			70	65	72	70	72	70	72	70	100	100	85	20	35	59	85	65	85	55	85	55	85	55	100	100	75	20	30	64	65	75	1	0.0	3.0	4.0	1.0	2.0	3.0
7	1	1	95	95	2	1	20	75	48	4	94.1093	57.049572	83.629616	59.4955	71.94251	23.767473	39.313557	65.350685	50	30	57	72	94	65	20	39	86	97	0	22	40	0	97	40	97	40	97	40	0	0	72	85	45	45	22	65	85	45	1	0.0	2.0	0.0	1.0	2.0	3.0
7	1	2	90	90	2	1	15	75	48	0									50	50	86	22	86	22	86	22	57	90	80	72	45	45	65	55	72	45	72	45	72	45	97	65	70	40	60	55	70	55	1	4.0	3.0	3.0	1.0	1.0	2.0
7	1	3	94	94	2	1	19	75	48	3	97.49954	94.15148	87.95358		49.90768	72.719574	24.670746		90	44	90	45	85	40	75	65	75	65	60	55	60	60	100	40	65	60	65	60	65	60	90	61	80	50	65	75	80	65	1	1.0	1.0	2.0	2.0	3.0	3.0
7	1	4	75	75	2	2	0	75	48	2	96.651855	77.13734			40.203297	52.70794			87	48	97	40	77	53	77	40	86	85	80	22	40	45	83	38	85	22	80	40	80	45	72	65	75	45	60	60	66	55	1	0.0	3.0	3.0	1.0	1.0	2.0
7	1	5	75	75	2	2	0	75	48	3	85.90871	84.08249	67.6928		50.74722	41.57662	56.12682		75	48	80	45	80	45	75	45	75	61	0	65	62	0	75	60	70	55	75	60	70	55	80	61	32	60	65	63	75	60	1	1.0	1.0	0.0	2.0	3.0	3.0
7	1	6	75	75	2	2	0	75	48	1	80.24				60.321724				85	50	75	55	75	65	55	85	94	77	50	65	53	55	82	57	90	50	80	60	40	80	97	80	80	40	40	75	88	50	1	4.0	2.0	2.0	1.0	2.0	3.0
7	1	7	59	59	2	3	16	75	48	1	85.79247				52.4983				65	60	65	60	61	62	61	65	77	50	0	40	50	0	61	60	61	65	61	65	61	62	80	20	61	45	75	65	59	61	0	2.0	2.0	0.0	2.0	3.0	3.0
7	1	8	59	59	2	3	16	75	48	2	94.16432	95.61488			33.296043	47.35434			95	45	60	60	50	55	50	50	20	75	75	39	65	45	70	70	80	75	80	75	20	75	0	65	70	0	60	55	30	75	0	4.0	3.0	3.0	1.0	1.0	2.0
7	1	9	58	58	2	3	17	75	48	0									0	0	0	0	0	0	0	0	86	55	61	22	85	65	59	74	45	65	32	63	61	65	72	40	61	45	80	62	50	70	0	0.0	1.0	1.0	1.0	2.0	3.0
7	2	1	67	162	2	1	20	63	87	4	75.13626	54.956455	76.06234	74.021	85.187126	111.141	67.268166	70.7689	75	85	76	85	76	85	75	0	82	54	32	22	72	36	55	72	82	72	82	72	0	0	80	100	74	70	0	82	100	70	1	0.0	2.0	0.0	1.0	2.0	3.0
7	2	2	72	162	2	1	15	63	87	0									78	12	82	22	82	22	82	22	76	100	60	85	0	99	82	70	80	70	80	70	80	70	82	60	60	72	0	65	75	70	0	4.0	3.0	3.0	1.0	1.0	2.0
7	2	3	68	162	2	1	19	63	87	3	64.35436	81.06465	85.18914		92.64068	74.44483	85.356705		80	74	100	0	100	0	100	0	60	59	20	70	85	80	100	70	60	0	60	20	100	10	72	59	10	86	80	100	60	90	1	1.0	1.0	2.0	2.0	3.0	3.0
7	2	4	87	162	2	2	0	63	87	2	46.75649	53.98472			108.825	72.368355			50	100	54	72	54	72	54	72	82	100	65	22	0	100	100	25	100	0	100	0	100	0	80	60	72	70	20	70	80	25	1	0.0	3.0	3.0	1.0	1.0	2.0
7	2	5	87	162	2	2	0	63	87	3	48.46621	44.652176	85.54564		104.21544	108.996	94.354		60	100	60	99	65	100	60	99	70	59	32	76	85	45	68	85	60	65	72	70	60	65	70	59	74	85	80	82	68	83	0	1.0	1.0	0.0	2.0	3.0	3.0
7	2	6	87	162	2	2	0	63	87	1	71.20346				67.17142				70	65	60	70	70	76	80	60	76	54	30	85	72	80	72	81	72	86	70	85	20	92	82	100	10	72	0	100	70	85	0	4.0	2.0	2.0	1.0	2.0	3.0
7	2	7	103	162	2	3	16	63	87	1	73.916145				89.84981				55	85	59	85	59	85	59	85	54	30	32	72	80	50	59	80	59	80	59	80	59	80	100	10	52	0	100	74	59	80	0	2.0	2.0	0.0	2.0	3.0	3.0
7	2	8	103	162	2	3	16	63	87	2	82.619	49.33615			84.01864	87.13518			50	90	20	80	30	80	30	80	75	100	60	0	0	99	45	100	10	100	10	100	10	100	0	100	60	0	10	65	20	100	0	4.0	3.0	3.0	1.0	1.0	2.0
7	2	9	104	162	2	3	17	63	87	0									31	55	32	36	32	45	32	50	82	80	59	22	60	85	65	70	74	82	74	82	52	74	80	20	59	70	92	80	60	85	0	0.0	1.0	1.0	1.0	2.0	3.0
7	3	1	80	242	2	1	20	60	56	4	66.018936	36.38268	40.89948	73.65667	79.752	77.149216	35.518524	63.04068	46	60	66	80	74	77	0	0	75	100	0	45	53	0	100	50	100	45	75	45	0	0	75	90	45	55	50	65	90	50	1	0.0	2.0	0.0	1.0	2.0	3.0
7	3	2	75	237	2	1	15	60	56	0									98	21	75	45	75	45	74	45	66	80	75	80	40	55	75	50	75	55	75	55	75	55	100	100	60	45	0	50	80	40	1	4.0	3.0	3.0	1.0	1.0	2.0
7	3	3	79	241	2	1	19	60	56	3	48.80716	59.09421	35.083622		73.62778	36.75977	77.03724		60	55	80	40	90	50	80	50	65	57	10	30	63	100	65	45	100	0	100	0	100	0	50	57	10	60	63	100	70	40	1	1.0	1.0	2.0	2.0	3.0	3.0
7	3	4	60	222	2	2	0	60	56	2	77.95015	66.6851			52.72161	51.34947			78	20	100	53	100	51	100	0	75	90	65	45	50	48	95	20	90	50	90	50	90	50	75	100	65	55	0	45	100	0	1	0.0	3.0	3.0	1.0	1.0	2.0
7	3	5	60	222	2	2	0	60	56	3	80.474846	82.66865	58.81542		60.375427	58.381718	35.03064		73	53	75	55	65	48	75	55	75	57	0	35	63	0	65	53	60	50	65	45	60	50	70	57	45	40	63	65	65	52	1	1.0	1.0	0.0	2.0	3.0	3.0
7	3	6	60	222	2	2	0	60	56	1	67.58161				33.65682				60	40	65	30	75	35	35	70	74	100	10	77	51	100	70	50	50	60	70	40	30	60	75	90	10	45	50	100	80	50	1	4.0	2.0	2.0	1.0	2.0	3.0
7	3	7	44	206	2	3	16	60	56	1	47.301598				37.913				57	63	57	63	57	63	57	63	100	10	0	0	100	0	57	63	57	63	57	63	57	63	90	10	45	50	100	65	57	63	0	2.0	2.0	0.0	2.0	3.0	3.0
7	3	8	44	206	2	3	16	60	56	2	44.555725	59.457			38.21228	34.074203			0	100	10	100	10	100	10	100	0	80	75	0	50	55	10	100	10	100	10	100	10	100	0	100	60	0	0	50	0	100	1	4.0	3.0	3.0	1.0	1.0	2.0
7	3	9	43	205	2	3	17	60	56	0									23	65	0	0	0	0	0	0	74	35	57	45	70	63	45	65	45	65	45	65	45	65	75	30	57	55	60	63	45	55	0	0.0	1.0	1.0	1.0	2.0	3.0
7	4	1	93	335	2	1	20	73	78	4	65.42683	62.988716	58.74432	89.93219	60.37491	79.43242	88.17757	64.76868	90	65	65	80	65	80	50	80	70	20	100	30	96	100	70	30	70	100	70	100	70	100	70	100	70	65	5	60	100	5	1	0.0	2.0	0.0	1.0	2.0	3.0
7	4	2	88	325	2	1	15	73	78	0									70	30	70	30	70	30	70	30	65	100	55	80	5	65	65	65	70	65	70	65	70	65	70	65	80	100	5	85	75	70	1	4.0	3.0	3.0	1.0	1.0	2.0
7	4	3	92	333	2	1	19	73	78	3	92.873	50.962383	58.157555		82.201324	64.645	67.08114		100	60	100	5	100	5	100	5	60	70	10	80	76	100	75	70	65	5	65	45	65	100	60	70	0	88	76	100	70	70	1	1.0	1.0	2.0	2.0	3.0	3.0
7	4	4	73	295	2	2	0	73	78	2	57.379784	50.73637			95.66729	97.539			42	100	20	96	20	99	20	99	70	100	62	30	5	75	85	5	100	5	100	15	100	5	70	65	70	65	45	88	65	75	0	0.0	3.0	3.0	1.0	1.0	2.0
7	4	5	73	295	2	2	0	73	78	3	65.42484	54.41	67.66274		89.11877	98.95781	69.73383		60	72	55	65	62	75	55	65	70	70	100	90	76	100	70	85	80	85	70	88	80	85	55	70	70	90	76	60	65	85	0	1.0	1.0	0.0	2.0	3.0	3.0
7	4	6	73	295	2	2	0	73	78	1	64.798904				89.602684				70	88	60	80	70	90	80	55	65	20	10	80	99	100	60	90	60	88	55	90	90	60	70	100	0	100	15	100	55	100	0	4.0	2.0	2.0	1.0	2.0	3.0
7	4	7	57	263	2	3	16	73	78	1	95.26029				101.104195				70	76	70	76	70	76	70	76	20	10	100	99	100	100	85	80	70	76	70	76	70	76	100	0	70	5	100	60	85	76	1	2.0	2.0	0.0	2.0	3.0	3.0
7	4	8	57	263	2	3	16	73	78	2	66.106575	73.11434			99.767395	78.274			0	100	10	100	10	100	10	100	50	100	55	80	5	65	0	100	0	100	0	100	0	100	70	65	80	100	100	85	0	100	0	4.0	3.0	3.0	1.0	1.0	2.0
7	4	9	56	261	2	3	17	73	78	0									100	100	100	100	100	100	100	100	70	80	70	30	55	76	75	60	70	60	70	60	70	60	70	90	70	65	60	76	80	60	1	0.0	1.0	1.0	1.0	2.0	3.0
7	5	1	41	376	2	1	20	26	61	4	19.678427	47.932205	47.38318	48.465057	80.78681	56.979202	43.13375	77.14151	20	81	20	81	48	57	48	77	70	10	100	30	80	0	50	60	70	30	10	80	100	0	35	100	30	50	5	80	75	75	1	0.0	2.0	0.0	1.0	2.0	3.0
7	5	2	46	371	2	1	15	26	61	0									70	30	70	30	70	30	70	30	20	55	35	81	2	50	40	50	35	50	35	50	35	50	70	11	50	30	88	65	40	70	0	4.0	3.0	3.0	1.0	1.0	2.0
7	5	3	42	375	2	1	19	26	61	3	46.24617	34.286755	39.85279		48.782463	53.456314	85.190506		100	0	55	2	55	5	55	7	11	43	0	88	68	100	100	0	11	88	45	70	0	85	40	43	0	60	76	100	100	0	1	1.0	1.0	2.0	2.0	3.0	3.0
7	5	4	61	356	2	2	0	26	61	2	13.911963	11.931799			78.411285	78.77358			10	78	10	80	10	80	10	85	70	55	37	30	5	48	55	27	100	5	100	5	100	5	35	45	30	50	70	75	30	75	0	0.0	3.0	3.0	1.0	1.0	2.0
7	5	5	61	356	2	2	0	26	61	3	49.717335	29.159506	5.611489		84.33069	49.27621	75.771255		37	55	35	50	37	48	35	50	25	49	100	80	68	0	35	70	50	65	30	75	50	65	48	43	30	57	76	80	40	65	0	1.0	1.0	0.0	2.0	3.0	3.0
7	5	6	61	356	2	2	0	26	61	1	20.305222				84.866				10	100	11	88	25	80	0	100	48	10	0	57	80	100	40	75	40	60	48	57	0	100	10	100	0	80	5	100	30	90	0	4.0	2.0	2.0	1.0	2.0	3.0
7	5	7	77	340	2	3	16	26	61	1	50.93049				43.18937				76	68	43	68	49	68	43	68	10	0	100	85	100	0	43	68	43	76	43	76	43	76	100	0	30	5	100	80	43	68	0	2.0	2.0	0.0	2.0	3.0	3.0
7	5	8	77	340	2	3	16	26	61	2	39.83816	18.816442			40.283104	67.70347			0	100	0	100	0	100	0	100	48	55	35	77	7	50	0	100	0	100	0	100	0	100	100	0	50	0	85	65	0	100	0	4.0	3.0	3.0	1.0	1.0	2.0
7	5	9	78	339	2	3	17	26	61	0									0	0	100	0	100	0	100	0	70	0	43	30	100	68	50	50	30	80	30	80	30	80	35	0	43	50	100	76	50	50	0	0.0	1.0	1.0	1.0	2.0	3.0
7	6	1	110	486	2	1	20	90	47	4	103.62617	74.202	109.652	76.7515	31.486446	45.08537	34.892056	58.419193	97	38	84	51	100	35	77	58	70	100	20	30	50	87	87	58	100	50	100	87	20	87	94	100	0	41	40	100	100	38	1	0.0	2.0	0.0	1.0	2.0	3.0
7	6	2	105	476	2	1	15	90	47	0									70	30	70	30	70	30	70	30	84	100	85	51	40	45	85	45	94	41	94	41	94	41	100	90	55	50	90	75	85	55	1	4.0	3.0	3.0	1.0	1.0	2.0
7	6	3	109	484	2	1	19	90	47	3	97.002335	89.776405	108.01474		54.30839	45.952484	41.404106		100	40	100	40	100	40	100	40	100	74	10	0	80	100	100	80	90	90	90	90	90	90	100	74	0	0	80	100	80	60	1	1.0	1.0	2.0	2.0	3.0	3.0
7	6	4	90	446	2	2	0	90	47	2	76.06744	106.90489			54.481445	64.42674			80	59	100	50	100	50	100	50	70	100	88	30	40	50	90	40	100	40	100	40	100	50	94	90	80	41	90	40	90	50	1	0.0	3.0	3.0	1.0	1.0	2.0
7	6	5	90	446	2	2	0	90	47	3	108.447	93.68448	82.58744		45.559494	71.988655	66.29244		90	60	85	45	88	50	85	45	85	74	30	35	80	87	88	50	55	75	80	40	55	75	100	74	65	60	80	60	90	55	1	1.0	1.0	0.0	2.0	3.0	3.0
7	6	6	90	446	2	2	0	90	47	1	83.942				34.987				90	30	100	0	85	35	65	60	100	100	10	35	50	100	100	40	100	0	100	60	100	0	100	100	0	87	40	100	100	91	1	4.0	2.0	2.0	1.0	2.0	3.0
7	6	7	74	414	2	3	16	90	47	1	108.811				61.4186				74	80	74	80	74	80	74	80	100	10	30	50	100	87	74	80	74	80	74	80	74	80	100	0	74	50	100	80	74	80	0	2.0	2.0	0.0	2.0	3.0	3.0
7	6	8	74	414	2	3	16	90	47	2	82.9504	78.38552			27.364706	62.176243			0	100	10	100	10	100	10	100	77	100	85	58	40	45	0	100	0	100	0	100	0	100	20	90	55	87	90	75	0	100	0	4.0	3.0	3.0	1.0	1.0	2.0
7	6	9	73	412	2	3	17	90	47	0									50	50	20	87	30	87	30	87	70	65	74	30	60	80	65	60	0	100	65	60	74	80	94	100	74	41	0	80	80	30	1	0.0	1.0	1.0	1.0	2.0	3.0
7	7	1	58	544	2	1	20	50	78	4	57.88054	46.812	42.094646	39.18782	53.67452	92.281	54.734207	99.79065	38	80	58	54	58	55	39	100	70	10	1	30	92	100	90	50	70	100	70	92	1	30	75	50	0	35	90	100	95	55	1	0.0	2.0	0.0	1.0	2.0	3.0
7	7	2	63	539	2	1	15	50	78	0									70	30	70	30	70	30	70	30	58	50	45	54	60	60	53	60	75	35	75	35	75	35	70	50	50	100	65	80	65	70	1	4.0	3.0	3.0	1.0	1.0	2.0
7	7	3	59	543	2	1	19	50	78	3	64.094894	52.787148	37.968937		78.886	97.2365	97.561		75	65	50	60	50	60	50	60	50	60	40	100	80	95	50	65	50	65	50	65	50	65	50	60	30	95	80	100	45	65	1	1.0	1.0	2.0	2.0	3.0	3.0
7	7	4	78	524	2	2	0	50	78	2	52.069	34.950584			92.46749	71.15374			45	85	10	92	35	92	35	95	70	50	35	30	60	56	50	65	50	90	35	90	35	90	75	50	65	35	65	85	50	85	0	0.0	3.0	3.0	1.0	1.0	2.0
7	7	5	78	524	2	2	0	50	78	3	38.302284	43.592587	29.061914		57.538727	54.72608	58.667553		35	56	45	60	35	56	45	60	70	60	30	95	80	86	50	85	50	80	65	85	50	80	50	60	0	95	80	100	55	85	0	1.0	1.0	0.0	2.0	3.0	3.0
7	7	6	78	524	2	2	0	50	78	1	70.39941				92.27638				70	100	50	100	70	95	0	100	58	35	45	55	92	95	50	95	50	95	50	95	0	100	70	35	30	92	90	100	40	95	0	4.0	2.0	2.0	1.0	2.0	3.0
7	7	7	94	508	2	3	16	50	78	1	45.410328				63.463882				65	80	60	80	60	80	60	80	35	40	1	95	95	100	60	80	60	80	60	80	60	80	35	30	0	90	100	100	60	80	0	2.0	2.0	0.0	2.0	3.0	3.0
7	7	8	94	508	2	3	16	50	78	2	57.842228	55.682644			80.722	79.14758			40	80	40	95	45	95	40	95	39	50	45	100	60	60	30	95	30	100	30	100	30	100	1	50	50	30	65	80	30	95	0	4.0	3.0	3.0	1.0	1.0	2.0
7	7	9	95	507	2	3	17	50	78	0									0	0	1	100	30	86	1	100	70	0	60	30	100	80	0	100	0	100	0	100	0	100	75	0	60	35	100	80	0	100	0	0.0	1.0	1.0	1.0	2.0	3.0
7	8	1	63	607	2	1	20	79	83	4	66.06335	68.19762	59.78	68.412315	91.23487	63.5654	86.423	89.33191	86	90	100	0	100	0	100	0	70	70	0	30	100	100	100	50	100	0	100	0	100	0	85	30	0	65	65	100	80	60	1	0.0	2.0	0.0	1.0	2.0	3.0
7	8	2	68	607	2	1	15	79	83	0									70	30	70	30	70	30	70	30	100	80	65	0	65	75	75	65	85	65	85	65	85	65	100	70	55	0	90	80	75	70	1	4.0	3.0	3.0	1.0	1.0	2.0
7	8	3	64	607	2	1	19	79	83	3	99.100746	101.28826	81.21374		84.06389	92.075	71.190445		90	70	80	65	80	65	80	65	100	80	30	95	90	100	70	90	70	90	70	90	70	90	75	80	30	100	90	95	70	95	0	1.0	1.0	2.0	2.0	3.0	3.0
7	8	4	83	607	2	2	0	79	83	2	98.18857	73.756714			102.976	101.407776			74	100	70	100	70	100	70	100	70	80	80	30	65	80	90	30	30	65	30	65	30	65	85	70	85	65	90	90	65	90	0	0.0	3.0	3.0	1.0	1.0	2.0
7	8	5	83	607	2	2	0	79	83	3	58.488785	95.78224	62.9359		99.91149	60.95465	69.78612		70	80	65	75	80	80	65	75	90	80	25	95	90	85	83	90	55	80	85	90	55	80	80	80	85	95	90	95	83	92	0	1.0	1.0	0.0	2.0	3.0	3.0
7	8	6	83	607	2	2	0	79	83	1	90.47582				93.56969				85	90	100	95	90	95	90	100	100	70	30	0	100	100	80	90	75	100	80	95	80	100	100	30	30	0	65	95	70	90	0	4.0	2.0	2.0	1.0	2.0	3.0
7	8	7	99	607	2	3	16	79	83	1	69.992714				103.78119				80	90	80	90	80	90	80	90	70	30	0	100	100	100	80	90	80	90	80	90	80	90	30	30	0	65	95	100	80	90	0	2.0	2.0	0.0	2.0	3.0	3.0
7	8	8	99	607	2	3	16	79	83	2	91.66145	97.012375			82.941	106.177704			50	100	30	100	30	100	30	100	100	80	65	0	65	75	40	100	30	95	30	95	30	95	100	70	55	0	90	80	40	100	0	4.0	3.0	3.0	1.0	1.0	2.0
7	8	9	100	607	2	3	17	79	83	0									0	0	0	100	25	85	0	100	70	90	80	30	100	90	0	0	0	100	85	95	0	100	85	80	80	65	100	90	0	0	0	0.0	1.0	1.0	1.0	2.0	3.0
7	9	1	9	616	2	1	20	45	29	4	43.036484	20.601862	22.379152	65.0812	33.684673	35.645187	25.93156	53.852516	63	54	0	100	0	100	0	100	71	61	0	29	70	100	70	70	0	100	0	100	0	100	40	71	0	50	25	100	40	50	1	0.0	2.0	0.0	1.0	2.0	3.0
7	9	2	14	621	2	1	15	45	29	0									70	30	71	29	71	29	71	29	0	40	40	100	25	30	20	30	40	50	40	50	40	50	0	45	45	100	45	30	45	50	0	4.0	3.0	3.0	1.0	1.0	2.0
7	9	3	10	617	2	1	19	45	29	3	64.20111	25.672792	42.488754		24.576412	44.813725	11.025925		40	25	40	25	45	25	45	25	100	53	20	20	57	95	50	20	45	45	46	46	45	45	50	53	0	40	57	100	50	30	1	1.0	1.0	2.0	2.0	3.0	3.0
7	9	4	29	636	2	2	0	45	29	2	60.50937	22.736368			42.03367	14.782109			20	42	61	70	61	50	91	50	71	45	46	29	25	28	50	25	71	25	71	25	71	28	40	46	35	50	46	60	45	46	0	0.0	3.0	3.0	1.0	1.0	2.0
7	9	5	29	636	2	2	0	45	29	3	55.589752	30.299236	28.89835		28.258856	38.7141	12.211407		45	25	40	30	46	28	40	30	30	53	25	25	57	82	42	40	45	30	35	60	45	75	60	53	25	50	57	85	55	48	1	1.0	1.0	0.0	2.0	3.0	3.0
7	9	6	29	636	2	2	0	45	29	1	27.429821				22.588058				25	20	100	20	30	25	27	86	0	61	20	100	50	95	50	60	50	40	60	50	50	60	0	71	0	100	25	100	50	60	0	4.0	2.0	2.0	1.0	2.0	3.0
7	9	7	45	652	2	3	16	45	29	1	61.94244				32.15375				70	57	53	57	53	57	53	57	91	20	0	50	95	100	53	57	53	57	53	57	53	57	71	0	0	28	100	100	53	57	0	2.0	2.0	0.0	2.0	3.0	3.0
7	9	8	45	652	2	3	16	45	29	2	62.82546	30.032907			49.85683	18.910208			40	80	20	95	20	95	20	95	0	45	40	100	25	30	40	50	0	100	0	100	0	100	0	45	45	100	45	75	30	100	0	4.0	3.0	3.0	1.0	1.0	2.0
7	9	9	46	653	2	3	17	45	29	0									0	0	0	100	25	82	0	100	71	27	53	29	86	57	0	0	0	100	25	85	0	100	40	50	53	50	60	57	0	0	0	0.0	1.0	1.0	1.0	2.0	3.0
7	10	1	60	676	2	1	20	90	80	4	95.068214	65.728386	93.987724	65.96056	103.144	79.847	67.59254	75.774	95	80	95	80	95	76	0	100	60	100	0	40	60	100	100	60	80	60	100	40	0	100	75	75	0	60	60	100	75	60	1	0.0	2.0	0.0	1.0	2.0	3.0
7	10	2	65	686	2	1	15	90	80	0									50	50	60	40	60	40	60	40	95	75	75	80	60	80	80	70	75	60	75	60	75	60	80	50	60	60	65	90	70	65	1	4.0	3.0	3.0	1.0	1.0	2.0
7	10	3	61	678	2	1	19	90	80	3	72.75839	67.739494	109.22864		59.570328	81.892395	85.47		65	60	75	60	75	60	77	60	80	70	20	72	85	100	60	75	50	65	50	65	50	65	70	70	20	90	85	100	65	70	1	1.0	1.0	2.0	2.0	3.0	3.0
7	10	4	80	716	2	2	0	90	80	2	111.729675	113.00983			60.346737	62.9562			100	60	100	60	100	60	100	60	60	75	80	40	60	90	78	85	75	60	75	60	75	60	75	50	68	60	65	90	60	65	0	0.0	3.0	3.0	1.0	1.0	2.0
7	10	5	80	716	2	2	0	90	80	3	81.48746	84.82216	80.63019		86.829	93.49071	90.65327		80	90	75	80	80	90	75	80	70	70	26	100	85	95	75	95	60	90	68	90	55	90	70	70	23	100	85	91	73	95	0	1.0	1.0	0.0	2.0	3.0	3.0
7	10	6	80	716	2	2	0	90	80	1	69.727				101.54483				70	100	80	72	70	100	20	100	95	100	20	76	60	100	70	90	70	90	70	100	70	100	100	75	20	40	60	100	70	90	0	4.0	2.0	2.0	1.0	2.0	3.0
7	10	7	96	748	2	3	16	90	80	1	78.27777				92.20817				70	85	70	85	70	85	70	85	100	20	0	60	100	100	70	85	70	85	70	85	70	85	75	20	0	60	100	100	70	85	0	2.0	2.0	0.0	2.0	3.0	3.0
7	10	8	96	748	2	3	16	90	80	2	110.338196	87.77332			95.16478	87.327385			20	100	20	100	20	100	20	100	0	77	75	100	60	80	50	100	20	100	20	100	20	100	0	50	55	100	65	90	50	100	0	4.0	3.0	3.0	1.0	1.0	2.0
7	10	9	97	750	2	3	17	90	80	0									0	0	0	100	26	95	0	100	60	20	70	40	100	85	0	0	0	100	23	91	0	100	75	70	70	60	100	85	0	0	0	0.0	1.0	1.0	1.0	2.0	3.0
7	11	1	96	772	2	1	20	76	65	4	78.36269	100.37485	62.53663	91.27048	65.94909	66.335	44.43065	69.82293	90	80	90	80	100	70	60	40	70	83	0	30	30	100	60	100	83	30	70	30	100	0	85	85	0	62	30	100	80	80	1	0.0	2.0	0.0	1.0	2.0	3.0
7	11	2	91	777	2	1	15	76	65	0									50	50	70	30	70	30	70	30	90	70	85	80	48	70	85	60	85	62	85	62	85	62	83	91	50	30	70	60	85	60	1	4.0	3.0	3.0	1.0	1.0	2.0
7	11	3	95	773	2	1	19	76	65	3	54.924164	68.19828	85.832		44.705048	53.19069	60.336376		70	30	70	48	70	50	55	50	91	72	20	70	74	100	45	65	91	70	90	74	21	100	100	72	20	60	74	98	40	60	0	1.0	1.0	2.0	2.0	3.0	3.0
7	11	4	76	792	2	2	0	76	65	2	82.85933	83.20029			54.908684	63.46189			83	59	83	30	83	30	83	30	70	70	78	30	50	75	72	75	85	30	85	30	85	30	85	90	85	62	74	65	80	60	1	0.0	3.0	3.0	1.0	1.0	2.0
7	11	5	76	792	2	2	0	76	65	3	60.741863	98.509	95.99085		55.254677	88.20761	63.799355		80	75	85	70	78	75	85	70	90	72	35	65	74	95	80	76	50	60	85	65	50	65	100	72	25	50	74	95	80	83	1	1.0	1.0	0.0	2.0	3.0	3.0
7	11	6	76	792	2	2	0	76	65	1	86.35479				68.16357				80	70	91	70	90	65	82	85	100	83	20	70	30	100	90	60	100	60	100	50	100	50	70	85	20	30	30	98	90	50	1	4.0	2.0	2.0	1.0	2.0	3.0
7	11	7	60	808	2	3	16	76	65	1	96.75345				48.739304				72	74	72	74	72	74	72	74	83	20	0	30	100	100	72	74	72	74	72	74	72	74	85	20	0	30	98	100	72	74	0	2.0	2.0	0.0	2.0	3.0	3.0
7	11	8	60	808	2	3	16	76	65	2	68.82428	61.64364			41.46295	54.66			62	75	20	100	20	100	20	100	60	55	85	40	50	70	50	85	20	98	20	98	20	98	100	21	50	0	100	65	30	100	0	4.0	3.0	3.0	1.0	1.0	2.0
7	11	9	59	809	2	3	17	76	65	0									0	0	0	100	35	95	0	100	70	82	72	30	85	74	0	0	0	100	25	95	0	100	85	100	72	62	50	74	0	0	0	0.0	1.0	1.0	1.0	2.0	3.0
7	12	1	93	865	2	1	20	73	26	4	50.18665	72.19489	64.04553	85.608215	20.145248	46.73658	49.19484	25.85942	50	20	50	20	90	20	100	0	70	94	0	30	6	100	70	0	70	0	90	0	100	0	70	90	0	35	30	100	90	20	1	0.0	2.0	0.0	1.0	2.0	3.0
7	12	2	88	865	2	1	15	73	26	0									50	50	70	30	70	30	70	30	50	95	70	20	48	55	70	50	70	35	70	35	70	35	70	65	60	0	98	55	70	50	1	4.0	3.0	3.0	1.0	1.0	2.0
7	12	3	92	865	2	1	19	73	26	3	94.66	81.22651	50.87484		25.643885	24.89349	47.59936		75	33	95	48	81	26	51	25	90	65	10	20	71	98	90	80	65	98	90	71	10	20	100	65	0	6	71	100	80	80	0	1.0	1.0	2.0	2.0	3.0	3.0
7	12	4	73	865	2	2	0	73	26	2	94.225296	81.45016			38.966496	6.383242			85	20	94	6	94	6	94	6	70	81	72	30	26	50	79	40	90	30	90	30	90	30	70	90	80	35	71	75	80	60	1	0.0	3.0	3.0	1.0	1.0	2.0
7	12	5	73	865	2	2	0	73	26	3	91.764824	51.3	63.734856		50.80385	45.561916	37.524746		70	50	70	55	72	50	70	55	85	65	45	20	71	85	75	40	60	55	80	75	60	55	95	65	13	12	71	69	80	30	1	1.0	1.0	0.0	2.0	3.0	3.0
7	12	6	73	865	2	2	0	73	26	1	85.890396				17.476334				80	20	90	20	85	20	50	10	90	94	18	20	6	99	91	15	100	6	95	12	100	5	90	90	0	0	30	100	90	10	1	4.0	2.0	2.0	1.0	2.0	3.0
7	12	7	57	865	2	3	16	73	26	1	61.13832				46.47709				65	71	65	71	65	71	65	71	94	17	0	6	99	100	65	71	65	71	65	71	65	71	90	0	0	30	100	100	65	71	0	2.0	2.0	0.0	2.0	3.0	3.0
7	12	8	57	865	2	3	16	73	26	2	51.913387	69.4131			13.57408	21.298971			58	30	10	98	18	99	17	99	100	51	70	0	25	55	0	100	0	100	0	100	0	100	100	10	60	0	20	55	0	100	0	4.0	3.0	3.0	1.0	1.0	2.0
7	12	9	56	865	2	3	17	73	26	0									0	0	0	100	45	85	0	100	70	50	65	30	10	71	0	0	0	100	13	69	0	100	70	100	65	35	5	71	0	0	0	0.0	1.0	1.0	1.0	2.0	3.0
8	1	1	64	64	3	1	18	72	82	0									45	49	47	33	43	40	56	49	72	80	60	97	69	88	57	63	63	69	72	88	80	82	80	50	66	33	60	76	57	63	1	4.0	3.0	3.0	1.0	2.0	3.0
8	1	2	64	64	3	1	18	72	82	4	47.850525	76.894646	72.0007	83.845	61.15391	96.548	77.80673	57.02489	70	75	72	97	48	57	84	57	47	80	50	33	63	75	60	50	80	33	47	33	80	33	63	80	50	69	50	75	60	55	1	0.0	1.0	1.0	1.0	1.0	2.0
8	1	3	69	69	3	1	13	72	82	1	71.025				74.55617				71	60	80	63	71	75	69	83	50	50	20	50	92	100	50	65	80	50	71	74	50	80	50	45	50	55	92	75	50	65	0	2.0	2.0	0.0	2.0	3.0	3.0
8	1	4	82	82	3	2	0	72	82	3	87.002	51.62661	73.012375		68.738	80.12782	71.765		50	75	80	69	50	75	79	80	48	71	50	57	75	75	50	70	50	60	50	60	50	60	47	71	50	33	74	75	50	70	0	4.0	1.0	1.0	1.0	1.0	2.0
8	1	5	82	82	3	2	0	72	82	1	64.678116				92.307				50	75	50	75	50	75	50	75	0	50	63	0	92	76	50	75	50	75	50	75	50	75	0	45	54	0	92	87	50	75	0	2.0	2.0	3.0	2.0	3.0	3.0
8	1	6	82	82	3	2	0	72	82	2	96.95829	92.61965			77.550575	71.05543			50	50	50	50	0	0	15	25	43	50	20	40	75	100	25	15	50	55	0	0	25	30	72	50	50	88	60	75	15	15	0	0.0	3.0	0.0	1.0	2.0	3.0
8	1	7	97	97	3	3	15	72	82	2	76.58519	58.563			89.97448	92.22235			68	91	50	92	50	92	50	92	79	20	77	80	100	65	68	92	45	92	45	92	45	92	50	50	45	60	75	53	68	92	0	3.0	0.0	3.0	2.0	3.0	3.0
8	1	8	94	94	3	3	12	72	82	0									35	35	20	100	20	100	20	100	56	69	50	49	83	75	50	75	50	75	50	75	50	75	80	50	50	82	80	75	50	75	0	0.0	1.0	1.0	1.0	1.0	2.0
8	1	9	93	93	3	3	11	72	82	3	60.355	68.96808	88.53027		76.83892	103.363304	74.49821		73	88	60	88	63	76	77	65	84	15	50	57	25	92	52	78	66	76	54	87	45	53	80	25	45	33	30	92	50	57	0	4.0	2.0	2.0	1.0	2.0	3.0
8	2	1	39	103	3	1	18	27	57	0									66	82	65	79	59	33	72	49	42	34	20	54	33	65	62	73	65	32	42	20	54	34	65	35	33	60	60	50	75	33	1	4.0	3.0	3.0	1.0	2.0	3.0
8	2	2	39	103	3	1	18	27	57	4	42.001465	25.224394	9.79796	37.43332	53.94169	58.34231	66.61864	78.007675	30	60	42	54	42	54	42	54	65	50	40	79	60	70	35	65	65	60	65	60	65	60	65	50	25	32	60	50	35	55	0	0.0	1.0	1.0	1.0	1.0	2.0
8	2	3	44	113	3	1	13	27	57	1	37.62932				71.36581				50	60	50	60	38	71	25	85	20	30	35	35	79	75	50	70	50	60	38	71	25	85	35	30	25	30	79	85	50	60	0	2.0	2.0	0.0	2.0	3.0	3.0
8	2	4	57	139	3	2	0	27	57	3	33.83106	28.9165	25.944208		53.134422	54.752167	33.030907		30	45	34	33	30	50	34	33	42	38	40	54	71	70	35	55	35	60	35	60	35	60	65	38	25	60	71	50	35	55	0	4.0	1.0	1.0	1.0	1.0	2.0
8	2	5	57	139	3	2	0	27	57	1	41.71695				71.62618				40	70	40	70	40	70	40	70	0	30	29	15	79	57	25	50	25	50	25	50	25	50	0	30	37	10	79	76	25	50	0	2.0	2.0	3.0	2.0	3.0	3.0
8	2	6	57	139	3	2	0	27	57	2	8.23929	33.4356			36.15119	32.85725			20	30	20	35	0	15	25	15	59	30	35	33	50	75	20	30	35	30	0	10	29	50	42	35	25	20	60	85	15	50	0	0.0	3.0	0.0	1.0	2.0	3.0
