subperid	altersubid	subid	session	period	subject	group	profit	totalprofit	participate	costvote	payperiod1	payperiod2	electorate	ideal	infotreatment	disctreatment	informed	candaambig	candbambig	adraw	bdraw	candalow	candblow	candamid	candahi	candbmid	candbhi	candadraw	candbdraw	canda	candb	initialchoice	choiceconfidence	timeokinitialchoiceok	treatment	send1	send2	suggest1	suggestcon1	suggest2	suggestcon2	timeokinfosendok	firstego	alter	alternum	rec1	rec2	reccon1	reccon2	vote	timeokfinalchoiceok	turnout	timeokactionok	realvote	votesfora1	votesforb1	votesfora2	votesforb2	votesfora3	votesforb3	winnerdraw	randomwinner	winner	adiff	bdiff	apay	bpay	payoff	payoffva	timeokpayoffok	hamburg	risk	strangeplaces	fright	experiences	friends	timeokquestions1ok	voteimport	participateimport	timeokquestions2ok	partyid	libcon	gender	timeokquestions3ok
10107	1106	101	1	7	1	1	0.0	1.0	1	25	3	9	1	1	4	3	0	2	1	80	19	3	3	4	5	4	5	31	34	3	4	1	3	14	43	99	99	0	0			28	1	6	6	1	0	1	0	1	23	5	25	99	0	4	0	0	"0"	"0"	14.674947	1	5	2	3	300	250	250	"-"	27	1.0	3	1	4	2	2	-17	2	2	14		2	2	16
10106	99	101	1	6	1	1	0.0	1.0	1	25	3	9	1	1	2	3	1	2	2	44	51	2	4	3	4	5	6	77	82	4	6	1	1	23	23	5	99	1	1	0	0	16	1	99	99	999	999	999	999	1	24	5	21	99	0	2	0	0	"0"	"0"	56.524773	5	5	3	5	250	150	150	"-"	25	1.0	3	1	4	2	2	-17	2	2	14		2	2	16
10102	99	101	1	2	1	1	0.0	0.0	1	25	3	9	1	1	1	3	1	1	1	65	31	3	3	4	5	4	5	37	76	4	5	1	1	18	13	4	5	1	1	5	1	20	1	99	99	999	999	999	999	1	19	5	27	99	3	0	0	0	"0"	"0"	58.636883	5	1	3	4	250	200	250	"-"	26	1.0	3	1	4	2	2	-17	2	2	14		2	2	16
10115	99	101	1	15	1	1	0.0	2.25	1	25	3	9	1	1	1	3	1	1	1	83	24	3	3	4	5	4	5	30	74	3	5	1	3	24	13	4	5	5	1	1	1	20	1	99	99	999	999	999	999	1	24	5	28	99	0	3	0	0	"0"	"0"	43.952656	1	5	2	4	300	200	200	"-"	27	1.0	3	1	4	2	2	-17	2	2	14		2	2	16
10104	99	101	1	4	1	1	0.0	1.0	1	25	3	9	1	1	2	3	1	2	1	70	17	3	3	4	5	4	5	39	75	4	5	5	3	15	23	5	99	5	2	0	0	20	1	99	99	999	999	999	999	5	22	5	25	99	0	3	0	0	"0"	"0"	85.19445	5	5	3	4	250	200	200	"-"	25	1.0	3	1	4	2	2	-17	2	2	14		2	2	16
10112	99	101	1	12	1	1	0.0	2.25	1	25	3	9	1	1	2	3	1	1	2	9	22	1	3	2	3	4	5	43	11	2	3	1	1	26	23	5	99	1	1	0	0	24	1	99	99	999	999	999	999	1	24	5	27	99	1	2	0	0	"0"	"0"	72.03984	5	5	1	2	350	300	300	"-"	26	1.0	3	1	4	2	2	-17	2	2	14		2	2	16
10103	1105	101	1	3	1	1	1.0	1.0	1	25	3	9	1	1	4	2	0	2	2	73	44	3	4	4	5	5	6	79	41	5	5	1	1	14	42	99	99	0	0			29	1	5	5	1	0	1	0	1	15	5	20	99	1	0	0	0	"0"	"0"	48.722622	1	1	4	4	200	200	200	"1"	24	1.0	3	1	4	2	2	-17	2	2	14		2	2	16
10109	99	101	1	9	1	1	1.25	2.25	1	25	3	9	1	1	1	2	1	1	1	41	53	2	4	3	4	5	6	85	16	4	4	1	1	25	12	7	99	1	1	0	0	20	1	99	99	999	999	999	999	1	24	5	26	99	0	2	0	0	"0"	"0"	62.79147	5	5	3	3	250	250	250	"1.25"	25	1.0	3	1	4	2	2	-17	2	2	14		2	2	16
10111	99	101	1	11	1	1	0.0	2.25	1	25	3	9	1	1	2	2	1	1	1	76	49	3	4	4	5	5	6	70	19	5	4	1	1	21	22	6	99	1	2	0	0	21	1	99	99	999	999	999	999	1	20	5	24	99	1	1	0	0	"0"	"0"	79.33211	5	5	4	3	200	250	250	"-"	27	1.0	3	1	4	2	2	-17	2	2	14		2	2	16
10101	1104	101	1	1	1	1	0.0	0.0	1	25	3	9	1	1	3	2	0	2	2	36	83	1	5	2	3	6	7	57	12	2	5	1	1	10	32	99	99	0	0	0	0	27	1	4	4	1	0	1	0	1	14	5	6	99	0	4	0	0	"0"	"0"	2.8849995	1	5	1	4	350	200	200	"-1.5"	25	1.0	3	1	4	2	2	-17	2	2	14		2	2	16
10114	99	101	1	14	1	1	0.0	2.25	1	25	3	9	1	1	1	1	1	1	1	71	5	3	3	4	5	4	5	44	49	4	4	1	1	26	11	2	99	1	1	0	0	24	1	99	99	999	999	999	999	1	27	5	26	99	1	3	0	0	"0"	"0"	65.41371	5	5	3	3	250	250	250	"-"	28	1.0	3	1	4	2	2	-17	2	2	14		2	2	16
10108	1106	101	1	8	1	1	0.0	1.0	1	25	3	9	1	1	4	3	0	1	1	7	7	1	3	2	3	4	5	76	16	3	3	1	2	23	43	99	99	0	0	0	0	29	1	6	6	1	0	1	0	1	22	5	22	99	1	3	0	0	"0"	"0"	7.962243	1	5	2	2	300	300	300	"-"	26	1.0	3	1	4	2	2	-17	2	2	14		2	2	16
10113	99	101	1	13	1	1	0.0	2.25	1	25	3	9	1	1	2	1	1	2	1	28	10	1	3	2	3	4	5	32	62	1	4	1	1	23	21	4	7	1	1	1	1	22	1	99	99	999	999	999	999	1	25	1	27	101	2	2	0	0	"0"	"0"	70.82713	5	5	0	3	400	250	225	"-"	27	1.0	3	1	4	2	2	-17	2	2	14		2	2	16
10105	99	101	1	5	1	1	0.0	1.0	1	25	3	9	1	1	1	3	1	1	2	82	10	3	3	4	5	4	5	99	50	5	4	1	1	21	13	4	5	5	1	5	1	16	1	99	99	999	999	999	999	1	26	5	25	99	1	1	0	0	"0"	"0"	92.53185	5	5	4	3	200	250	250	"-"	27	1.0	3	1	4	2	2	-17	2	2	14		2	2	16
10110	99	101	1	10	1	1	0.0	2.25	1	25	3	9	1	1	1	1	1	1	2	82	50	3	4	4	5	5	6	62	38	4	5	1	1	24	11	2	99	1	1	0	0	25	1	99	99	999	999	999	999	1	23	5	21	99	1	3	0	0	"0"	"0"	18.453564	1	5	3	4	250	200	200	"-"	26	1.0	3	1	4	2	2	-17	2	2	14		2	2	16
10208	1107	102	1	8	2	1	0.0	1.25	1	25	3	9	1	2	4	3	0	1	1	0	0	1	3	2	3	4	5	0	0	3	3	5	3	22	43	99	99	0	0	0	0	27	1	7	7	5	0	1	0	5	26	5	26	99	1	3	0	0	"0"	"0"	7.962243	1	5	1	1	350	350	350	"-"	26	1.0	4	3	3	3	3	-30	4	3	9		5	2	-2
10202	1106	102	1	2	2	1	0.0	0.0	1	25	3	9	1	2	1	3	0	1	1	0	0	3	3	4	5	4	5	0	0	4	5	1	3	20	13	99	99	0	0	0	0	29	1	6	6	1	0	4	0	1	7	1	25	101	3	0	0	0	"0"	"0"	58.636883	5	1	2	3	300	250	275	"-"	29	1.0	4	3	3	3	3	-30	4	3	9		5	2	-2
10207	1107	102	1	7	2	1	0.0	1.25	1	25	3	9	1	2	4	3	0	2	1	0	0	3	3	4	5	4	5	0	0	3	4	5	4	23	43	99	99	0	0			29	1	7	7	5	0	1	0	5	19	1	28	105	0	4	0	0	"0"	"0"	14.674947	1	5	1	2	350	300	275	"-"	30	1.0	4	3	3	3	3	-30	4	3	9		5	2	-2
10210	1101	102	1	10	2	1	0.0	2.75	1	25	3	9	1	2	1	1	0	1	2	0	0	3	4	4	5	5	6	0	0	4	5	5	3	26	11	99	99	0	0	0	0	30	1	1	1	1	0	1	0	1	23	1	28	101	1	3	0	0	"0"	"0"	18.453564	1	5	2	3	300	250	225	"-"	20	1.0	4	3	3	3	3	-30	4	3	9		5	2	-2
10215	1106	102	1	15	2	1	0.0	2.75	1	25	3	9	1	2	1	3	0	1	1	0	0	3	3	4	5	4	5	0	0	3	5	1	3	22	13	99	99	0	0	0	0	24	1	6	6	5	0	1	0	5	27	1	27	105	0	3	0	0	"0"	"0"	43.952656	1	5	1	3	350	250	225	"-"	29	1.0	4	3	3	3	3	-30	4	3	9		5	2	-2
10206	99	102	1	6	2	1	0.0	1.25	1	25	3	9	1	2	2	3	1	2	2	0	0	2	4	3	4	5	6	0	0	4	6	1	1	25	23	6	99	1	4	0	0	18	1	99	99	999	999	999	999	1	27	5	28	99	0	2	0	0	"0"	"0"	56.524773	5	5	2	4	300	200	200	"-"	29	1.0	4	3	3	3	3	-30	4	3	9		5	2	-2
10209	1103	102	1	9	2	1	1.5	2.75	1	25	3	9	1	2	1	2	0	1	1	0	0	2	4	3	4	5	6	0	0	4	4	5	4	21	12	99	99	0	0	0	0	29	1	3	3	1	1	1	2	1	23	5	25	99	0	2	0	0	"0"	"0"	62.79147	5	5	2	2	300	300	300	"1.5"	29	1.0	4	3	3	3	3	-30	4	3	9		5	2	-2
10212	99	102	1	12	2	1	0.0	2.75	1	25	3	9	1	2	2	3	1	1	2	0	0	1	3	2	3	4	5	0	0	2	3	1	1	25	23	6	99	1	2	0	0	25	1	99	99	999	999	999	999	1	28	1	10	101	1	2	0	0	"0"	"0"	72.03984	5	5	0	1	400	350	325	"-"	22	1.0	4	3	3	3	3	-30	4	3	9		5	2	-2
10205	1106	102	1	5	2	1	0.0	1.25	1	25	3	9	1	2	1	3	0	1	2	0	0	3	3	4	5	4	5	0	0	5	4	1	2	22	13	99	99	0	0	0	0	25	1	6	6	1	0	2	0	1	21	5	28	99	1	1	0	0	"0"	"0"	92.53185	5	5	3	2	250	300	300	"-"	27	1.0	4	3	3	3	3	-30	4	3	9		5	2	-2
10213	99	102	1	13	2	1	0.0	2.75	1	25	3	9	1	2	2	1	1	2	1	0	0	1	3	2	3	4	5	0	0	1	4	1	3	21	21	5	99	1	1	0	0	21	1	99	99	999	999	999	999	1	20	1	22	101	2	2	0	0	"0"	"0"	70.82713	5	5	1	2	350	300	275	"-"	30	1.0	4	3	3	3	3	-30	4	3	9		5	2	-2
10204	99	102	1	4	2	1	0.0	1.25	1	25	3	9	1	2	2	3	1	2	1	0	0	3	3	4	5	4	5	0	0	4	5	5	4	16	23	6	99	5	1	0	0	17	1	99	99	999	999	999	999	5	26	1	25	105	0	3	0	0	"0"	"0"	85.19445	5	5	2	3	300	250	225	"-"	30	1.0	4	3	3	3	3	-30	4	3	9		5	2	-2
10203	1106	102	1	3	2	1	1.25	1.25	1	25	3	9	1	2	4	2	0	2	2	0	0	3	4	4	5	5	6	0	0	5	5	1	3	15	42	99	99	0	0			29	1	6	6	5	0	4	0	5	22	5	28	99	1	0	0	0	"0"	"0"	48.722622	1	1	3	3	250	250	250	"1.25"	26	1.0	4	3	3	3	3	-30	4	3	9		5	2	-2
10211	99	102	1	11	2	1	0.0	2.75	1	25	3	9	1	2	2	2	1	1	1	0	0	3	4	4	5	5	6	0	0	5	4	5	3	24	22	4	7	5	3	1	2	14	1	99	99	999	999	999	999	1	25	1	25	101	1	1	0	0	"0"	"0"	79.33211	5	5	3	2	250	300	275	"-"	29	1.0	4	3	3	3	3	-30	4	3	9		5	2	-2
10201	99	102	1	1	2	1	0.0	0.0	1	25	3	9	1	2	3	2	1	2	2	0	0	1	5	2	3	6	7	0	0	2	5	1	1	25	32	99	99	0	0	0	0	22	1	99	99	999	999	999	999	1	21	5	23	99	0	4	0	0	"0"	"0"	2.8849995	1	5	0	3	400	250	250	"-"	27	1.0	4	3	3	3	3	-30	4	3	9		5	2	-2
10214	1101	102	1	14	2	1	0.0	2.75	1	25	3	9	1	2	1	1	0	1	1	0	0	3	3	4	5	4	5	0	0	4	4	5	2	24	11	99	99	0	0	0	0	13	1	1	1	1	0	1	0	5	24	1	28	105	1	3	0	0	"0"	"0"	65.41371	5	5	2	2	300	300	275	"-"	27	1.0	4	3	3	3	3	-30	4	3	9		5	2	-2
10309	99	103	1	9	3	1	1.75	3.25	1	25	3	9	1	3	1	2	1	1	1	0	0	2	4	3	4	5	6	0	0	4	4	1	1	20	12	2	5	1	1	1	2	17	1	99	99	999	999	999	999	1	27	5	27	99	0	2	0	0	"0"	"0"	62.79147	5	5	1	1	350	350	350	"1.75"	16	1.0	4	5	1	5	3	-40	2	2	13		4	1	7
10308	1104	103	1	8	3	1	0.0	1.5	1	25	3	9	1	3	4	3	0	1	1	0	0	1	3	2	3	4	5	0	0	3	3	1	2	23	43	99	99	0	0	0	0	28	1	4	4	5	0	1	0	5	21	5	25	99	1	3	0	0	"0"	"0"	7.962243	1	5	0	0	400	400	400	"-"	21	1.0	4	5	1	5	3	-40	2	2	13		4	1	7
10314	99	103	1	14	3	1	0.0	3.25	1	25	3	9	1	3	1	1	1	1	1	0	0	3	3	4	5	4	5	0	0	4	4	1	1	22	11	4	99	1	1	0	0	26	1	99	99	999	999	999	999	1	27	5	28	99	1	3	0	0	"0"	"0"	65.41371	5	5	1	1	350	350	350	"-"	25	1.0	4	5	1	5	3	-40	2	2	13		4	1	7
10307	1104	103	1	7	3	1	0.0	1.5	1	25	3	9	1	3	4	3	0	2	1	0	0	3	3	4	5	4	5	0	0	3	4	1	2	24	43	99	99	0	0			26	1	4	4	5	0	1	0	5	18	5	27	99	0	4	0	0	"0"	"0"	14.674947	1	5	0	1	400	350	350	"-"	21	1.0	4	5	1	5	3	-40	2	2	13		4	1	7
10310	99	103	1	10	3	1	0.0	3.25	1	25	3	9	1	3	1	1	1	1	2	0	0	3	4	4	5	5	6	0	0	4	5	1	1	21	11	4	99	1	1	0	0	22	1	99	99	999	999	999	999	1	25	5	24	99	1	3	0	0	"0"	"0"	18.453564	1	5	1	2	350	300	300	"-"	27	1.0	4	5	1	5	3	-40	2	2	13		4	1	7
10302	99	103	1	2	3	1	0.0	0.0	1	25	3	9	1	3	1	3	1	1	1	0	0	3	3	4	5	4	5	0	0	4	5	1	2	6	13	7	99	1	2	0	0	6	1	99	99	999	999	999	999	1	15	5	25	99	3	0	0	0	"0"	"0"	58.636883	5	1	1	2	350	300	350	"-"	21	1.0	4	5	1	5	3	-40	2	2	13		4	1	7
10301	1105	103	1	1	3	1	0.0	0.0	1	25	3	9	1	3	3	2	0	2	2	0	0	1	5	2	3	6	7	0	0	2	5	1	3	8	32	99	99	0	0	0	0	19	1	5	5	5	0	1	0	5	6	5	19	99	0	4	0	0	"0"	"0"	2.8849995	1	5	1	2	350	300	300	"-"	20	1.0	4	5	1	5	3	-40	2	2	13		4	1	7
10304	99	103	1	4	3	1	0.0	1.5	1	25	3	9	1	3	2	3	1	2	1	0	0	3	3	4	5	4	5	0	0	4	5	5	1	19	23	4	7	5	1	5	1	5	1	99	99	999	999	999	999	5	21	5	26	99	0	3	0	0	"0"	"0"	85.19445	5	5	1	2	350	300	300	"-"	19	1.0	4	5	1	5	3	-40	2	2	13		4	1	7
10303	1107	103	1	3	3	1	1.5	1.5	1	25	3	9	1	3	4	2	0	2	2	0	0	3	4	4	5	5	6	0	0	5	5	1	1	20	42	99	99	0	0			25	1	7	7	1	0	4	0	1	9	5	26	99	1	0	0	0	"0"	"0"	48.722622	1	1	2	2	300	300	300	"1.5"	21	1.0	4	5	1	5	3	-40	2	2	13		4	1	7
10315	99	103	1	15	3	1	0.0	3.25	1	25	3	9	1	3	1	3	1	1	1	0	0	3	3	4	5	4	5	0	0	3	5	1	1	25	13	7	99	1	1	0	0	20	1	99	99	999	999	999	999	1	29	5	29	99	0	3	0	0	"0"	"0"	43.952656	1	5	0	2	400	300	300	"-"	27	1.0	4	5	1	5	3	-40	2	2	13		4	1	7
10312	99	103	1	12	3	1	0.0	3.25	1	25	3	9	1	3	2	3	1	1	2	0	0	1	3	2	3	4	5	0	0	2	3	1	1	25	23	4	7	1	2	1	2	19	1	99	99	999	999	999	999	1	28	5	28	99	1	2	0	0	"0"	"0"	72.03984	5	5	1	0	350	400	400	"-"	20	1.0	4	5	1	5	3	-40	2	2	13		4	1	7
10306	99	103	1	6	3	1	0.0	1.5	1	25	3	9	1	3	2	3	1	2	2	0	0	2	4	3	4	5	6	0	0	4	6	1	1	14	23	4	7	1	1	5	1	4	1	99	99	999	999	999	999	1	26	5	19	99	0	2	0	0	"0"	"0"	56.524773	5	5	1	3	350	250	250	"-"	25	1.0	4	5	1	5	3	-40	2	2	13		4	1	7
10311	99	103	1	11	3	1	0.0	3.25	1	25	3	9	1	3	2	2	1	1	1	0	0	3	4	4	5	5	6	0	0	5	4	1	1	23	22	5	99	1	3	0	0	24	1	99	99	999	999	999	999	1	26	5	27	99	1	1	0	0	"0"	"0"	79.33211	5	5	2	1	300	350	350	"-"	28	1.0	4	5	1	5	3	-40	2	2	13		4	1	7
10305	99	103	1	5	3	1	0.0	1.5	1	25	3	9	1	3	1	3	1	1	2	0	0	3	3	4	5	4	5	0	0	5	4	1	1	20	13	7	99	1	1	0	0	16	1	99	99	999	999	999	999	1	25	5	27	99	1	1	0	0	"0"	"0"	92.53185	5	5	2	1	300	350	350	"-"	25	1.0	4	5	1	5	3	-40	2	2	13		4	1	7
10313	99	103	1	13	3	1	0.0	3.25	1	25	3	9	1	3	2	1	1	2	1	0	0	1	3	2	3	4	5	0	0	1	4	5	1	24	21	6	99	5	1	0	0	25	1	99	99	999	999	999	999	5	26	5	28	99	2	2	0	0	"0"	"0"	70.82713	5	5	2	1	300	350	350	"-"	26	1.0	4	5	1	5	3	-40	2	2	13		4	1	7
10413	1101	104	1	13	4	1	0.0	3.75	1	25	3	9	1	4	2	1	0	2	1	0	0	1	3	2	3	4	5	0	0	1	4	5	4	23	21	99	99	0	0	0	0	-9	1	1	1	1	1	1	1	5	15	5	15	99	2	2	0	0	"0"	"0"	70.82713	5	5	3	0	250	400	400	"-"	27	1.0	2	2	2	2	1	-12	1	2	18		4	2	9
10414	1103	104	1	14	4	1	0.0	3.75	1	25	3	9	1	4	1	1	0	1	1	0	0	3	3	4	5	4	5	0	0	4	4	1	4	23	11	99	99	0	0	0	0	28	1	3	3	1	0	1	0	1	25	5	27	99	1	3	0	0	"0"	"0"	65.41371	5	5	0	0	400	400	400	"-"	30	1.0	2	2	2	2	1	-12	1	2	18		4	2	9
10409	1106	104	1	9	4	1	2.0	3.75	1	25	3	9	1	4	1	2	0	1	1	0	0	2	4	3	4	5	6	0	0	4	4	5	4	25	12	99	99	0	0	0	0	29	1	6	6	5	0	1	0	5	24	5	27	99	0	2	0	0	"0"	"0"	62.79147	5	5	0	0	400	400	400	"2"	28	1.0	2	2	2	2	1	-12	1	2	18		4	2	9
10412	1103	104	1	12	4	1	0.0	3.75	1	25	3	9	1	4	2	3	0	1	2	0	0	1	3	2	3	4	5	0	0	2	3	1	4	25	23	99	99	0	0	0	0	22	1	3	3	1	1	2	2	1	25	5	24	99	1	2	0	0	"0"	"0"	72.03984	5	5	2	1	300	350	350	"-"	28	1.0	2	2	2	2	1	-12	1	2	18		4	2	9
10402	1101	104	1	2	4	1	0.0	0.0	1	25	3	9	1	4	1	3	0	1	1	0	0	3	3	4	5	4	5	0	0	4	5	5	4	17	13	99	99	0	0	0	0	28	1	1	1	1	5	1	1	5	16	5	25	99	3	0	0	0	"0"	"0"	58.636883	5	1	0	1	400	350	400	"-"	25	1.0	2	2	2	2	1	-12	1	2	18		4	2	9
10404	1103	104	1	4	4	1	0.0	1.75	1	25	3	9	1	4	2	3	0	2	1	0	0	3	3	4	5	4	5	0	0	4	5	5	4	14	23	99	99	0	0	0	0	30	1	3	3	5	5	1	1	5	26	5	26	99	0	3	0	0	"0"	"0"	85.19445	5	5	0	1	400	350	350	"-"	28	1.0	2	2	2	2	1	-12	1	2	18		4	2	9
10405	1101	104	1	5	4	1	0.0	1.75	1	25	3	9	1	4	1	3	0	1	2	0	0	3	3	4	5	4	5	0	0	5	4	1	4	19	13	99	99	0	0	0	0	25	1	1	1	5	5	1	1	5	27	5	25	99	1	1	0	0	"0"	"0"	92.53185	5	5	1	0	350	400	400	"-"	28	1.0	2	2	2	2	1	-12	1	2	18		4	2	9
10408	99	104	1	8	4	1	0.0	1.75	1	25	3	9	1	4	4	3	1	1	1	0	0	1	3	2	3	4	5	0	0	3	3	5	1	25	43	3	99	5	1	0	0	16	1	99	99	999	999	999	999	5	28	1	26	105	1	3	0	0	"0"	"0"	7.962243	1	5	1	1	350	350	325	"-"	28	1.0	2	2	2	2	1	-12	1	2	18		4	2	9
10415	1101	104	1	15	4	1	0.0	3.75	1	25	3	9	1	4	1	3	0	1	1	0	0	3	3	4	5	4	5	0	0	3	5	5	4	26	13	99	99	0	0	0	0	30	1	1	1	5	1	1	1	5	27	5	26	99	0	3	0	0	"0"	"0"	43.952656	1	5	1	1	350	350	350	"-"	23	1.0	2	2	2	2	1	-12	1	2	18		4	2	9
10403	99	104	1	3	4	1	1.75	1.75	1	25	3	9	1	4	4	2	1	2	2	0	0	3	4	4	5	5	6	0	0	5	5	1	1	21	42	99	99	0	0			29	1	99	99	999	999	999	999	1	24	5	26	99	1	0	0	0	"0"	"0"	48.722622	1	1	1	1	350	350	350	"1.75"	28	1.0	2	2	2	2	1	-12	1	2	18		4	2	9
10406	1103	104	1	6	4	1	0.0	1.75	1	25	3	9	1	4	2	3	0	2	2	0	0	2	4	3	4	5	6	0	0	4	6	1	4	20	23	99	99	0	0	0	0	29	1	3	3	1	5	1	1	1	25	5	28	99	0	2	0	0	"0"	"0"	56.524773	5	5	0	2	400	300	300	"-"	29	1.0	2	2	2	2	1	-12	1	2	18		4	2	9
10407	99	104	1	7	4	1	0.0	1.75	1	25	3	9	1	4	4	3	1	2	1	0	0	3	3	4	5	4	5	0	0	3	4	5	1	24	43	3	99	5	1			16	1	99	99	999	999	999	999	5	25	1	27	105	0	4	0	0	"0"	"0"	14.674947	1	5	1	0	350	400	375	"-"	28	1.0	2	2	2	2	1	-12	1	2	18		4	2	9
10411	1102	104	1	11	4	1	0.0	3.75	1	25	3	9	1	4	2	2	0	1	1	0	0	3	4	4	5	5	6	0	0	5	4	1	4	20	22	99	99	0	0	0	0	28	1	2	2	5	1	3	2	5	22	5	22	99	1	1	0	0	"0"	"0"	79.33211	5	5	1	0	350	400	400	"-"	29	1.0	2	2	2	2	1	-12	1	2	18		4	2	9
10401	99	104	1	1	4	1	0.0	0.0	1	25	3	9	1	4	3	2	1	2	2	0	0	1	5	2	3	6	7	0	0	2	5	5	1	20	32	1	99	1	1	0	0	23	1	99	99	999	999	999	999	5	21	1	25	105	0	4	0	0	"0"	"0"	2.8849995	1	5	2	1	300	350	325	"-"	25	1.0	2	2	2	2	1	-12	1	2	18		4	2	9
10410	1103	104	1	10	4	1	0.0	3.75	1	25	3	9	1	4	1	1	0	1	2	0	0	3	4	4	5	5	6	0	0	4	5	1	4	25	11	99	99	0	0	0	0	30	1	3	3	1	0	1	0	5	21	5	27	99	1	3	0	0	"0"	"0"	18.453564	1	5	0	1	400	350	350	"-"	27	1.0	2	2	2	2	1	-12	1	2	18		4	2	9
10510	1106	105	1	10	5	1	0.0	3.75	1	25	3	9	1	5	1	1	0	1	2	0	0	3	4	4	5	5	6	0	0	4	5	5	1	21	11	99	99	0	0	0	0	24	1	6	6	5	5	1	1	5	26	1	20	105	1	3	0	0	"0"	"0"	18.453564	1	5	1	0	350	400	375	"-"	27	1.0	2	1	2	2	5	-5	1	5	11		5	2	15
10514	1106	105	1	14	5	1	0.0	3.75	1	25	3	9	1	5	1	1	0	1	1	0	0	3	3	4	5	4	5	0	0	4	4	5	1	19	11	99	99	0	0	0	0	29	1	6	6	1	1	1	1	5	18	1	10	105	1	3	0	0	"0"	"0"	65.41371	5	5	1	1	350	350	325	"-"	27	1.0	2	1	2	2	5	-5	1	5	11		5	2	15
10507	99	105	1	7	5	1	0.0	2.0	1	25	3	9	1	5	4	3	1	2	1	0	0	3	3	4	5	4	5	0	0	3	4	5	1	22	43	99	99	0	0			30	1	99	99	999	999	999	999	5	23	1	8	105	0	4	0	0	"0"	"0"	14.674947	1	5	2	1	300	350	325	"-"	18	1.0	2	1	2	2	5	-5	1	5	11		5	2	15
10503	99	105	1	3	5	1	2.0	2.0	1	25	3	9	1	5	4	2	1	2	2	0	0	3	4	4	5	5	6	0	0	5	5	5	1	26	42	1	99	1	1			21	1	99	99	999	999	999	999	5	27	5	24	99	1	0	0	0	"0"	"0"	48.722622	1	1	0	0	400	400	400	"2"	0	1.0	2	1	2	2	5	-5	1	5	11		5	2	15
10508	99	105	1	8	5	1	0.0	2.0	1	25	3	9	1	5	4	3	1	1	1	0	0	1	3	2	3	4	5	0	0	3	3	5	1	23	43	99	99	0	0	0	0	25	1	99	99	999	999	999	999	5	19	1	23	105	1	3	0	0	"0"	"0"	7.962243	1	5	2	2	300	300	275	"-"	27	1.0	2	1	2	2	5	-5	1	5	11		5	2	15
10506	1101	105	1	6	5	1	0.0	2.0	1	25	3	9	1	5	2	3	0	2	2	0	0	2	4	3	4	5	6	0	0	4	6	5	1	21	23	99	99	0	0	0	0	27	1	1	1	1	0	1	0	5	22	5	26	99	0	2	0	0	"0"	"0"	56.524773	5	5	1	1	350	350	350	"-"	27	1.0	2	1	2	2	5	-5	1	5	11		5	2	15
10515	1101	105	1	15	5	1	0.0	3.75	1	25	3	9	1	5	1	3	0	1	1	0	0	3	3	4	5	4	5	0	0	3	5	5	3	24	13	99	99	0	0	0	0	18	0	1	1	5	1	1	1	5	21	5	27	99	0	3	0	0	"0"	"0"	43.952656	1	5	2	0	300	400	400	"-"	30	1.0	2	1	2	2	5	-5	1	5	11		5	2	15
10513	1102	105	1	13	5	1	0.0	3.75	1	25	3	9	1	5	2	1	0	2	1	0	0	1	3	2	3	4	5	0	0	1	4	5	2	18	21	99	99	0	0	0	0	16	1	2	2	1	0	1	0	5	26	5	20	99	2	2	0	0	"0"	"0"	70.82713	5	5	4	1	200	350	350	"-"	25	1.0	2	1	2	2	5	-5	1	5	11		5	2	15
10505	1101	105	1	5	5	1	0.0	2.0	1	25	3	9	1	5	1	3	0	1	2	0	0	3	3	4	5	4	5	0	0	5	4	5	1	21	13	99	99	0	0	0	0	24	0	1	1	5	5	1	1	5	24	5	22	99	1	1	0	0	"0"	"0"	92.53185	5	5	0	1	400	350	350	"-"	17	1.0	2	1	2	2	5	-5	1	5	11		5	2	15
10512	1101	105	1	12	5	1	0.0	3.75	1	25	3	9	1	5	2	3	0	1	2	0	0	1	3	2	3	4	5	0	0	2	3	5	2	14	23	99	99	0	0	0	0	24	1	1	1	1	0	1	0	5	23	5	22	99	1	2	0	0	"0"	"0"	72.03984	5	5	3	2	250	300	300	"-"	25	1.0	2	1	2	2	5	-5	1	5	11		5	2	15
10502	1101	105	1	2	5	1	0.0	0.0	1	25	3	9	1	5	1	3	0	1	1	0	0	3	3	4	5	4	5	0	0	4	5	5	1	17	13	99	99	0	0	0	0	27	0	1	1	1	5	1	1	5	8	5	5	99	3	0	0	0	"0"	"0"	58.636883	5	1	1	0	350	400	350	"-"	27	1.0	2	1	2	2	5	-5	1	5	11		5	2	15
10509	1103	105	1	9	5	1	1.75	3.75	1	25	3	9	1	5	1	2	0	1	1	0	0	2	4	3	4	5	6	0	0	4	4	5	2	21	12	99	99	0	0	0	0	16	0	3	3	1	1	1	2	1	16	5	22	99	0	2	0	0	"0"	"0"	62.79147	5	5	1	1	350	350	350	"1.75"	27	1.0	2	1	2	2	5	-5	1	5	11		5	2	15
10504	1101	105	1	4	5	1	0.0	2.0	1	25	3	9	1	5	2	3	0	2	1	0	0	3	3	4	5	4	5	0	0	4	5	5	2	19	23	99	99	0	0	0	0	24	1	1	1	5	0	2	0	5	17	5	22	99	0	3	0	0	"0"	"0"	85.19445	5	5	1	0	350	400	400	"-"	28	1.0	2	1	2	2	5	-5	1	5	11		5	2	15
10511	1103	105	1	11	5	1	0.0	3.75	1	25	3	9	1	5	2	2	0	1	1	0	0	3	4	4	5	5	6	0	0	5	4	5	1	20	22	99	99	0	0	0	0	25	1	3	3	1	0	3	0	5	22	5	24	99	1	1	0	0	"0"	"0"	79.33211	5	5	0	1	400	350	350	"-"	26	1.0	2	1	2	2	5	-5	1	5	11		5	2	15
10501	99	105	1	1	5	1	0.0	0.0	1	25	3	9	1	5	3	2	1	2	2	0	0	1	5	2	3	6	7	0	0	2	5	5	1	20	32	3	99	5	1	0	0	11	1	99	99	999	999	999	999	5	24	1	23	105	0	4	0	0	"0"	"0"	2.8849995	1	5	3	0	250	400	375	"-"	20	1.0	2	1	2	2	5	-5	1	5	11		5	2	15
10615	99	106	1	15	6	1	0.0	3.125	1	25	3	9	1	6	1	3	1	1	1	0	0	3	3	4	5	4	5	0	0	3	5	5	1	24	13	2	99	5	1	0	0	26	1	99	99	999	999	999	999	5	28	1	26	105	0	3	0	0	"0"	"0"	43.952656	1	5	3	1	250	350	325	"-"	23	1.0	2	4	4	2	1	-26	2	5	-6		4	2	3
10602	99	106	1	2	6	1	0.0	0.0	1	25	3	9	1	6	1	3	1	1	1	0	0	3	3	4	5	4	5	0	0	4	5	5	2	16	13	2	99	1	4	0	0	5	1	99	99	999	999	999	999	1	21	1	22	101	3	0	0	0	"0"	"0"	58.636883	5	1	2	1	300	350	275	"-"	15	1.0	2	4	4	2	1	-26	2	5	-6		4	2	3
10610	99	106	1	10	6	1	0.0	3.125	1	25	3	9	1	6	1	1	1	1	2	0	0	3	4	4	5	5	6	0	0	4	5	5	1	22	11	5	7	5	1	5	1	5	1	99	99	999	999	999	999	5	28	1	23	105	1	3	0	0	"0"	"0"	18.453564	1	5	2	1	300	350	325	"-"	19	1.0	2	4	4	2	1	-26	2	5	-6		4	2	3
10608	99	106	1	8	6	1	0.0	1.75	1	25	3	9	1	6	4	3	1	1	1	0	0	1	3	2	3	4	5	0	0	3	3	5	1	25	43	1	99	1	1	0	0	15	1	99	99	999	999	999	999	1	7	1	29	101	1	3	0	0	"0"	"0"	7.962243	1	5	3	3	250	250	225	"-"	19	1.0	2	4	4	2	1	-26	2	5	-6		4	2	3
10604	1102	106	1	4	6	1	0.0	1.75	1	25	3	9	1	6	2	3	0	2	1	0	0	3	3	4	5	4	5	0	0	4	5	5	3	17	23	99	99	0	0	0	0	27	1	2	2	5	0	1	0	5	18	1	24	105	0	3	0	0	"0"	"0"	85.19445	5	5	2	1	300	350	325	"-"	13	1.0	2	4	4	2	1	-26	2	5	-6		4	2	3
10611	1101	106	1	11	6	1	0.0	3.125	1	25	3	9	1	6	2	2	0	1	1	0	0	3	4	4	5	5	6	0	0	5	4	5	3	23	22	99	99	0	0	0	0	29	1	1	1	1	0	2	0	1	17	5	25	99	1	1	0	0	"0"	"0"	79.33211	5	5	1	2	350	300	300	"-"	22	1.0	2	4	4	2	1	-26	2	5	-6		4	2	3
10609	99	106	1	9	6	1	1.375	3.125	1	25	3	9	1	6	1	2	1	1	1	0	0	2	4	3	4	5	6	0	0	4	4	5	1	26	12	4	99	5	1	0	0	23	1	99	99	999	999	999	999	5	26	1	27	105	0	2	0	0	"0"	"0"	62.79147	5	5	2	2	300	300	275	"1.375"	20	1.0	2	4	4	2	1	-26	2	5	-6		4	2	3
10601	1107	106	1	1	6	1	0.0	0.0	1	25	3	9	1	6	3	2	0	2	2	0	0	1	5	2	3	6	7	0	0	2	5	5	3	6	32	99	99	0	0	0	0	24	1	7	7	5	0	1	0	5	19	1	17	105	0	4	0	0	"0"	"0"	2.8849995	1	5	4	1	200	350	325	"-"	21	1.0	2	4	4	2	1	-26	2	5	-6		4	2	3
10603	99	106	1	3	6	1	1.75	1.75	1	25	3	9	1	6	4	2	1	2	2	0	0	3	4	4	5	5	6	0	0	5	5	5	1	19	42	2	99	5	4			8	1	99	99	999	999	999	999	5	28	5	23	99	1	0	0	0	"0"	"0"	48.722622	1	1	1	1	350	350	350	"1.75"	17	1.0	2	4	4	2	1	-26	2	5	-6		4	2	3
10607	99	106	1	7	6	1	0.0	1.75	1	25	3	9	1	6	4	3	1	2	1	0	0	3	3	4	5	4	5	0	0	3	4	5	1	21	43	1	99	1	1			4	1	99	99	999	999	999	999	5	24	5	26	99	0	4	0	0	"0"	"0"	14.674947	1	5	3	2	250	300	300	"-"	22	1.0	2	4	4	2	1	-26	2	5	-6		4	2	3
10605	99	106	1	5	6	1	0.0	1.75	1	25	3	9	1	6	1	3	1	1	2	0	0	3	3	4	5	4	5	0	0	5	4	1	2	11	13	2	99	1	2	0	0	11	1	99	99	999	999	999	999	1	21	1	27	101	1	1	0	0	"0"	"0"	92.53185	5	5	1	2	350	300	275	"-"	18	1.0	2	4	4	2	1	-26	2	5	-6		4	2	3
10612	1102	106	1	12	6	1	0.0	3.125	1	25	3	9	1	6	2	3	0	1	2	0	0	1	3	2	3	4	5	0	0	2	3	5	1	22	23	99	99	0	0	0	0	29	1	2	2	1	0	2	0	5	16	1	25	105	1	2	0	0	"0"	"0"	72.03984	5	5	4	3	200	250	225	"-"	15	1.0	2	4	4	2	1	-26	2	5	-6		4	2	3
10613	1103	106	1	13	6	1	0.0	3.125	1	25	3	9	1	6	2	1	0	2	1	0	0	1	3	2	3	4	5	0	0	1	4	5	1	24	21	99	99	0	0	0	0	30	1	3	3	5	0	1	0	5	24	1	29	105	2	2	0	0	"0"	"0"	70.82713	5	5	5	2	150	300	275	"-"	25	1.0	2	4	4	2	1	-26	2	5	-6		4	2	3
10614	99	106	1	14	6	1	0.0	3.125	1	25	3	9	1	6	1	1	1	1	1	0	0	3	3	4	5	4	5	0	0	4	4	1	1	13	11	5	7	1	1	1	1	18	1	99	99	999	999	999	999	1	26	1	27	101	1	3	0	0	"0"	"0"	65.41371	5	5	2	2	300	300	275	"-"	24	1.0	2	4	4	2	1	-26	2	5	-6		4	2	3
10606	1102	106	1	6	6	1	0.0	1.75	1	25	3	9	1	6	2	3	0	2	2	0	0	2	4	3	4	5	6	0	0	4	6	5	1	22	23	99	99	0	0	0	0	29	1	2	2	1	0	4	0	5	21	1	22	105	0	2	0	0	"0"	"0"	56.524773	5	5	2	0	300	400	375	"-"	22	1.0	2	4	4	2	1	-26	2	5	-6		4	2	3
10710	1106	107	1	10	7	1	0.0	2.5	1	25	3	9	1	7	1	1	0	1	2	0	0	3	4	4	5	5	6	0	0	4	5	5	1	19	11	99	99	0	0	0	0	29	0	6	6	5	5	1	1	5	20	1	25	105	1	3	0	0	"0"	"0"	18.453564	1	5	3	2	250	300	275	"-"	24	1.0	3	2	3	2	1	-48	3	4	-7		1	2	15
10711	1102	107	1	11	7	1	0.0	2.5	1	25	3	9	1	7	2	2	0	1	1	0	0	3	4	4	5	5	6	0	0	5	4	5	1	20	22	99	99	0	0	0	0	29	0	2	2	5	1	3	2	5	23	1	26	105	1	1	0	0	"0"	"0"	79.33211	5	5	2	3	300	250	225	"-"	24	1.0	3	2	3	2	1	-48	3	4	-7		1	2	15
10702	1103	107	1	2	7	1	0.0	0.0	1	25	3	9	1	7	1	3	0	1	1	0	0	3	3	4	5	4	5	0	0	4	5	5	1	5	13	99	99	0	0	0	0	20	1	3	3	1	0	2	0	1	14	1	21	101	3	0	0	0	"0"	"0"	58.636883	5	1	3	2	250	300	225	"-"	23	1.0	3	2	3	2	1	-48	3	4	-7		1	2	15
10704	1103	107	1	4	7	1	0.0	1.375	1	25	3	9	1	7	2	3	0	2	1	0	0	3	3	4	5	4	5	0	0	4	5	5	1	17	23	99	99	0	0	0	0	28	0	3	3	5	5	1	1	5	15	1	24	105	0	3	0	0	"0"	"0"	85.19445	5	5	3	2	250	300	275	"-"	25	1.0	3	2	3	2	1	-48	3	4	-7		1	2	15
10707	99	107	1	7	7	1	0.0	1.375	1	25	3	9	1	7	4	3	1	2	1	0	0	3	3	4	5	4	5	0	0	3	4	5	1	19	43	2	99	5	1			12	1	99	99	999	999	999	999	5	23	1	24	105	0	4	0	0	"0"	"0"	14.674947	1	5	4	3	200	250	225	"-"	27	1.0	3	2	3	2	1	-48	3	4	-7		1	2	15
10714	1106	107	1	14	7	1	0.0	2.5	1	25	3	9	1	7	1	1	0	1	1	0	0	3	3	4	5	4	5	0	0	4	4	5	1	21	11	99	99	0	0	0	0	28	0	6	6	1	1	1	1	5	22	1	27	105	1	3	0	0	"0"	"0"	65.41371	5	5	3	3	250	250	225	"-"	26	1.0	3	2	3	2	1	-48	3	4	-7		1	2	15
10712	1103	107	1	12	7	1	0.0	2.5	1	25	3	9	1	7	2	3	0	1	2	0	0	1	3	2	3	4	5	0	0	2	3	5	1	18	23	99	99	0	0	0	0	29	0	3	3	1	1	2	2	5	24	1	26	105	1	2	0	0	"0"	"0"	72.03984	5	5	5	4	150	200	175	"-"	25	1.0	3	2	3	2	1	-48	3	4	-7		1	2	15
10715	1103	107	1	15	7	1	0.0	2.5	1	25	3	9	1	7	1	3	0	1	1	0	0	3	3	4	5	4	5	0	0	3	5	5	1	20	13	99	99	0	0	0	0	29	1	3	3	1	0	1	0	5	24	1	27	105	0	3	0	0	"0"	"0"	43.952656	1	5	4	2	200	300	275	"-"	26	1.0	3	2	3	2	1	-48	3	4	-7		1	2	15
10709	1101	107	1	9	7	1	1.125	2.5	1	25	3	9	1	7	1	2	0	1	1	0	0	2	4	3	4	5	6	0	0	4	4	5	1	19	12	99	99	0	0	0	0	29	1	1	1	1	0	1	0	5	20	1	26	105	0	2	0	0	"0"	"0"	62.79147	5	5	3	3	250	250	225	"1.125"	26	1.0	3	2	3	2	1	-48	3	4	-7		1	2	15
10706	1103	107	1	6	7	1	0.0	1.375	1	25	3	9	1	7	2	3	0	2	2	0	0	2	4	3	4	5	6	0	0	4	6	5	1	19	23	99	99	0	0	0	0	29	0	3	3	1	5	1	1	5	22	1	20	105	0	2	0	0	"0"	"0"	56.524773	5	5	3	1	250	350	325	"-"	24	1.0	3	2	3	2	1	-48	3	4	-7		1	2	15
10713	1101	107	1	13	7	1	0.0	2.5	1	25	3	9	1	7	2	1	0	2	1	0	0	1	3	2	3	4	5	0	0	1	4	5	1	19	21	99	99	0	0	0	0	29	0	1	1	1	1	1	1	5	22	1	25	105	2	2	0	0	"0"	"0"	70.82713	5	5	6	3	100	250	225	"-"	25	1.0	3	2	3	2	1	-48	3	4	-7		1	2	15
10708	99	107	1	8	7	1	0.0	1.375	1	25	3	9	1	7	4	3	1	1	1	0	0	1	3	2	3	4	5	0	0	3	3	5	1	21	43	2	99	5	1	0	0	18	1	99	99	999	999	999	999	5	23	1	25	105	1	3	0	0	"0"	"0"	7.962243	1	5	4	4	200	200	175	"-"	24	1.0	3	2	3	2	1	-48	3	4	-7		1	2	15
10701	99	107	1	1	7	1	0.0	0.0	1	25	3	9	1	7	3	2	1	2	2	0	0	1	5	2	3	6	7	0	0	2	5	5	1	12	32	6	99	5	1	0	0	-5	1	99	99	999	999	999	999	5	20	1	21	105	0	4	0	0	"0"	"0"	2.8849995	1	5	5	2	150	300	275	"-"	24	1.0	3	2	3	2	1	-48	3	4	-7		1	2	15
10703	99	107	1	3	7	1	1.375	1.375	1	25	3	9	1	7	4	2	1	2	2	0	0	3	4	4	5	5	6	0	0	5	5	1	4	12	42	3	99	1	4			11	1	99	99	999	999	999	999	1	20	1	20	101	1	0	0	0	"0"	"0"	48.722622	1	1	2	2	300	300	275	"1.375"	25	1.0	3	2	3	2	1	-48	3	4	-7		1	2	15
10705	1103	107	1	5	7	1	0.0	1.375	1	25	3	9	1	7	1	3	0	1	2	0	0	3	3	4	5	4	5	0	0	5	4	5	1	15	13	99	99	0	0	0	0	29	1	3	3	1	0	1	0	5	10	1	24	105	1	1	0	0	"0"	"0"	92.53185	5	5	2	3	300	250	225	"-"	21	1.0	3	2	3	2	1	-48	3	4	-7		1	2	15
10806	99	108	1	6	8	1	0.0	1.25	1	25	3	9	2	1	1	2	1	1	1	10	58	1	4	2	3	5	6	53	32	2	4	1	1	21	12	7	99	1	1	0	0	11	1	99	106	999	999	999	999	1	27	1	27	201	0	0	1	3	"0"	"0"	91.24404	5	5	1	3	350	250	225	"-"	24	1.0	3	4	2	4	4	-35	3	2	6		4	2	5
10813	1205	108	1	13	8	1	0.0	2.625	1	25	3	9	2	1	4	2	0	1	2	59	7	2	3	3	4	4	5	87	66	4	4	1	3	21	42	99	99	0	0	0	0	30	1	5	12	1	0	3	0	1	23	5	26	99	0	0	0	2	"0"	"0"	38.407734	1	5	3	3	250	250	250	"-"	27	1.0	3	4	2	4	4	-35	3	2	6		4	2	5
10808	1204	108	1	8	8	1	0.0	1.25	1	25	3	9	2	1	4	1	0	1	1	62	44	3	4	4	5	5	6	37	61	4	5	1	3	17	41	99	99	0	0	0	0	29	1	4	11	1	0	1	0	1	27	5	28	99	0	0	1	1	"0"	"0"	78.7042	5	5	3	4	250	200	200	"-"	29	1.0	3	4	2	4	4	-35	3	2	6		4	2	5
10805	99	108	1	5	8	1	0.0	1.25	1	25	3	9	2	1	1	1	1	1	1	74	98	3	5	4	5	6	7	32	32	3	5	1	4	22	11	2	99	1	1	0	0	19	1	99	106	999	999	999	999	1	26	1	26	201	0	0	2	3	"0"	"0"	95.991936	5	5	2	4	300	200	175	"-"	28	1.0	3	4	2	4	4	-35	3	2	6		4	2	5
10807	1204	108	1	7	8	1	0.0	1.25	1	25	3	9	2	1	3	2	0	1	2	7	64	1	5	2	3	6	7	58	43	2	6	1	3	17	32	99	99	0	0			28	1	4	11	1	0	1	0	1	20	5	26	99	0	0	1	3	"0"	"0"	76.4523	5	5	1	5	350	150	150	"-"	27	1.0	3	4	2	4	4	-35	3	2	6		4	2	5
10809	99	108	1	9	8	1	1.375	2.625	1	25	3	9	2	1	2	1	1	1	1	8	19	1	3	2	3	4	5	18	24	1	3	1	3	11	21	4	7	5	3	5	3	5	1	99	106	999	999	999	999	1	27	1	27	201	0	0	2	3	"0"	"0"	36.2598	1	5	0	2	400	300	275	"1.375"	20	1.0	3	4	2	4	4	-35	3	2	6		4	2	5
10802	1207	108	1	2	8	1	0.0	0.0	1	25	3	9	2	1	4	4	0	1	1	81	17	3	3	4	5	4	5	28	76	3	5	1	4	9	44	99	99	0	0	0	0	28	1	7	14	5	0	4	0	1	15	5	21	99	0	0	1	0	"0"	"0"	40.851303	1	1	2	4	300	200	300	"-"	23	1.0	3	4	2	4	4	-35	3	2	6		4	2	5
10801	99	108	1	1	8	1	0.0	0.0	1	25	3	9	2	1	1	3	1	2	1	64	85	3	5	4	5	6	7	21	14	3	5	1	4	17	13	4	5	1	2	5	1	9	1	99	106	999	999	999	999	1	24	1	22	201	0	0	2	3	"0"	"0"	38.613735	1	5	2	4	300	200	175	"-"	27	1.0	3	4	2	4	4	-35	3	2	6		4	2	5
10815	99	108	1	15	8	1	0.0	2.625	1	25	3	9	2	1	1	2	1	2	2	98	59	3	4	4	5	5	6	21	33	3	4	1	1	21	12	7	99	5	4	0	0	25	1	99	106	999	999	999	999	1	25	5	27	99	0	0	1	0	"0"	"0"	4.01231	1	1	2	3	300	250	300	"-"	27	1.0	3	4	2	4	4	-35	3	2	6		4	2	5
10804	99	108	1	4	8	1	0.0	1.25	1	25	3	9	2	1	2	2	1	2	1	26	1	1	3	2	3	4	5	34	97	2	5	1	2	23	22	6	99	1	4	0	0	14	1	99	106	999	999	999	999	1	25	5	24	99	0	0	1	4	"0"	"0"	59.670826	5	5	1	4	350	200	200	"-"	28	1.0	3	4	2	4	4	-35	3	2	6		4	2	5
10811	99	108	1	11	8	1	0.0	2.625	1	25	3	9	2	1	1	2	1	1	2	83	33	3	3	4	5	4	5	5	33	3	3	5	3	20	12	7	99	1	3	0	0	21	1	99	106	999	999	999	999	5	27	5	26	99	0	0	1	2	"0"	"0"	91.61771	5	5	2	2	300	300	300	"-"	26	1.0	3	4	2	4	4	-35	3	2	6		4	2	5
10803	1207	108	1	3	8	1	1.25	1.25	1	25	3	9	2	1	3	4	0	1	1	68	97	3	5	4	5	6	7	37	66	4	6	1	4	17	34	99	99	0	0			28	1	7	14	1	0	4	0	1	21	5	26	99	0	0	2	2	"0"	"0"	3.3971956	1	1	3	5	250	150	250	"1.25"	27	1.0	3	4	2	4	4	-35	3	2	6		4	2	5
10810	1205	108	1	10	8	1	0.0	2.625	1	25	3	9	2	1	3	3	0	2	2	38	89	1	5	2	3	6	7	61	14	2	5	1	3	24	33	99	99	0	0	0	0	29	1	5	12	1	0	1	0	1	24	5	28	99	0	0	1	4	"0"	"0"	80.53722	5	5	1	4	350	200	200	"-"	29	1.0	3	4	2	4	4	-35	3	2	6		4	2	5
10814	99	108	1	14	8	1	0.0	2.625	1	25	3	9	2	1	1	3	1	1	2	95	7	3	3	4	5	4	5	89	81	5	5	1	1	21	13	4	5	1	1	5	3	16	1	99	106	999	999	999	999	1	27	5	28	99	0	0	0	1	"0"	"0"	17.362198	1	5	4	4	200	200	200	"-"	27	1.0	3	4	2	4	4	-35	3	2	6		4	2	5
10812	1206	108	1	12	8	1	0.0	2.625	1	25	3	9	2	1	4	3	0	2	1	75	20	3	3	4	5	4	5	76	74	5	5	1	3	26	43	99	99	0	0	0	0	29	1	6	13	1	0	1	0	1	27	5	28	99	0	0	1	1	"0"	"0"	71.05564	5	5	4	4	200	200	200	"-"	28	1.0	3	4	2	4	4	-35	3	2	6		4	2	5
10904	99	109	1	4	9	1	0.0	1.5	1	25	3	9	2	2	2	2	1	2	1	0	0	1	3	2	3	4	5	0	0	2	5	1	1	22	22	4	7	1	1	1	1	11	1	99	106	999	999	999	999	1	22	1	26	201	0	0	1	4	"0"	"0"	59.670826	5	5	0	3	400	250	225	"-"	22	1.0	4	1	4	2	3	-52	2	2	10		4	2	0
10908	1205	109	1	8	9	1	0.0	1.5	1	25	3	9	2	2	4	1	0	1	1	0	0	3	4	4	5	5	6	0	0	4	5	1	1	27	41	99	99	0	0	0	0	29	1	5	12	1	0	1	0	1	21	5	24	99	0	0	1	1	"0"	"0"	78.7042	5	5	2	3	300	250	250	"-"	25	1.0	4	1	4	2	3	-52	2	2	10		4	2	0
10910	99	109	1	10	9	1	0.0	3.125	1	25	3	9	2	2	3	3	1	2	2	0	0	1	5	2	3	6	7	0	0	2	5	1	1	16	33	6	99	5	3	0	0	7	1	99	106	999	999	999	999	1	27	1	27	201	0	0	1	4	"0"	"0"	80.53722	5	5	0	3	400	250	225	"-"	25	1.0	4	1	4	2	3	-52	2	2	10		4	2	0
10915	1203	109	1	15	9	1	0.0	3.125	1	25	3	9	2	2	1	2	0	2	2	0	0	3	4	4	5	5	6	0	0	3	4	1	2	17	12	99	99	0	0	0	0	24	1	3	10	1	1	1	1	1	24	1	16	201	0	0	1	0	"0"	"0"	4.01231	1	1	1	2	350	300	325	"-"	23	1.0	4	1	4	2	3	-52	2	2	10		4	2	0
10909	99	109	1	9	9	1	1.625	3.125	1	25	3	9	2	2	2	1	1	1	1	0	0	1	3	2	3	4	5	0	0	1	3	1	1	21	21	5	99	1	1	0	0	14	1	99	106	999	999	999	999	1	26	1	20	201	0	0	2	3	"0"	"0"	36.2598	1	5	1	1	350	350	325	"1.625"	22	1.0	4	1	4	2	3	-52	2	2	10		4	2	0
10913	1206	109	1	13	9	1	0.0	3.125	1	25	3	9	2	2	4	2	0	1	2	0	0	2	3	3	4	4	5	0	0	4	4	1	1	20	42	99	99	0	0	0	0	27	1	6	13	5	0	3	0	1	22	5	25	99	0	0	0	2	"0"	"0"	38.407734	1	5	2	2	300	300	300	"-"	27	1.0	4	1	4	2	3	-52	2	2	10		4	2	0
10911	1203	109	1	11	9	1	0.0	3.125	1	25	3	9	2	2	1	2	0	1	2	0	0	3	3	4	5	4	5	0	0	3	3	1	1	16	12	99	99	0	0	0	0	28	1	3	10	5	5	1	1	1	26	5	11	99	0	0	1	2	"0"	"0"	91.61771	5	5	1	1	350	350	350	"-"	24	1.0	4	1	4	2	3	-52	2	2	10		4	2	0
10902	1204	109	1	2	9	1	0.0	0.0	1	25	3	9	2	2	4	4	0	1	1	0	0	3	3	4	5	4	5	0	0	3	5	1	3	11	44	99	99	0	0	0	0	25	1	4	11	1	0	1	0	1	18	1	22	201	0	0	1	0	"0"	"0"	40.851303	1	1	1	3	350	250	325	"-"	25	1.0	4	1	4	2	3	-52	2	2	10		4	2	0
10906	1203	109	1	6	9	1	0.0	1.5	1	25	3	9	2	2	1	2	0	1	1	0	0	1	4	2	3	5	6	0	0	2	4	1	1	19	12	99	99	0	0	0	0	29	1	3	10	1	5	1	1	1	25	5	20	99	0	0	1	3	"0"	"0"	91.24404	5	5	0	2	400	300	300	"-"	21	1.0	4	1	4	2	3	-52	2	2	10		4	2	0
10901	1206	109	1	1	9	1	0.0	0.0	1	25	3	9	2	2	1	3	0	2	1	0	0	3	5	4	5	6	7	0	0	3	5	1	2	13	13	99	99	0	0	0	0	23	1	6	13	5	0	1	0	1	-5	5	18	99	0	0	2	3	"0"	"0"	38.613735	1	5	1	3	350	250	250	"-"	23	1.0	4	1	4	2	3	-52	2	2	10		4	2	0
10914	1206	109	1	14	9	1	0.0	3.125	1	25	3	9	2	2	1	3	0	1	2	0	0	3	3	4	5	4	5	0	0	5	5	1	2	22	13	99	99	0	0	0	0	29	1	6	13	1	0	1	0	1	18	5	24	99	0	0	0	1	"0"	"0"	17.362198	1	5	3	3	250	250	250	"-"	26	1.0	4	1	4	2	3	-52	2	2	10		4	2	0
10903	99	109	1	3	9	1	1.5	1.5	1	25	3	9	2	2	3	4	1	1	1	0	0	3	5	4	5	6	7	0	0	4	6	1	1	17	34	3	99	1	1			18	1	99	106	999	999	999	999	1	22	5	19	99	0	0	2	2	"0"	"0"	3.3971956	1	1	2	4	300	200	300	"1.5"	25	1.0	4	1	4	2	3	-52	2	2	10		4	2	0
10905	1201	109	1	5	9	1	0.0	1.5	1	25	3	9	2	2	1	1	0	1	1	0	0	3	5	4	5	6	7	0	0	3	5	1	2	17	11	99	99	0	0	0	0	28	1	1	8	1	0	1	0	1	21	5	26	99	0	0	2	3	"0"	"0"	95.991936	5	5	1	3	350	250	250	"-"	25	1.0	4	1	4	2	3	-52	2	2	10		4	2	0
10912	1207	109	1	12	9	1	0.0	3.125	1	25	3	9	2	2	4	3	0	2	1	0	0	3	3	4	5	4	5	0	0	5	5	1	1	21	43	99	99	0	0	0	0	27	1	7	14	5	0	2	0	1	23	5	21	99	0	0	1	1	"0"	"0"	71.05564	5	5	3	3	250	250	250	"-"	28	1.0	4	1	4	2	3	-52	2	2	10		4	2	0
10907	99	109	1	7	9	1	0.0	1.5	1	25	3	9	2	2	3	2	1	1	2	0	0	1	5	2	3	6	7	0	0	2	6	1	1	20	32	99	99	0	0			28	1	99	106	999	999	999	999	1	24	1	15	201	0	0	1	3	"0"	"0"	76.4523	5	5	0	4	400	200	175	"-"	18	1.0	4	1	4	2	3	-52	2	2	10		4	2	0
11015	99	110	1	15	10	1	0.0	3.5	1	25	3	9	2	3	1	2	1	2	2	0	0	3	4	4	5	5	6	0	0	3	4	1	1	25	12	2	5	1	1	1	1	11	1	99	106	999	999	999	999	1	27	5	27	99	0	0	1	0	"0"	"0"	4.01231	1	1	0	1	400	350	400	"-"	29	1.0	4	2	3	4	2	-39	3	4	12		3	1	9
11001	99	110	1	1	10	1	0.0	0.0	1	25	3	9	2	3	1	3	1	2	1	0	0	3	5	4	5	6	7	0	0	3	5	1	1	19	13	7	99	5	2	0	0	7	1	99	106	999	999	999	999	1	22	1	23	201	0	0	2	3	"0"	"0"	38.613735	1	5	0	2	400	300	275	"-"	20	1.0	4	2	3	4	2	-39	3	4	12		3	1	9
11003	1202	110	1	3	10	1	1.625	1.625	1	25	3	9	2	3	3	4	0	1	1	0	0	3	5	4	5	6	7	0	0	4	6	1	2	17	34	99	99	0	0			28	1	2	9	1	0	1	0	1	21	1	14	201	0	0	2	2	"0"	"0"	3.3971956	1	1	1	3	350	250	325	"1.625"	26	1.0	4	2	3	4	2	-39	3	4	12		3	1	9
11005	99	110	1	5	10	1	0.0	1.625	1	25	3	9	2	3	1	1	1	1	1	0	0	3	5	4	5	6	7	0	0	3	5	1	2	20	11	4	99	1	1	0	0	22	1	99	106	999	999	999	999	1	23	1	21	201	0	0	2	3	"0"	"0"	95.991936	5	5	0	2	400	300	275	"-"	28	1.0	4	2	3	4	2	-39	3	4	12		3	1	9
11006	99	110	1	6	10	1	0.0	1.625	1	25	3	9	2	3	1	2	1	1	1	0	0	1	4	2	3	5	6	0	0	2	4	1	1	19	12	2	5	1	1	5	1	6	1	99	106	999	999	999	999	1	24	5	26	99	0	0	1	3	"0"	"0"	91.24404	5	5	1	1	350	350	350	"-"	27	1.0	4	2	3	4	2	-39	3	4	12		3	1	9
11007	1205	110	1	7	10	1	0.0	1.625	1	25	3	9	2	3	3	2	0	1	2	0	0	1	5	2	3	6	7	0	0	2	6	1	2	14	32	99	99	0	0			30	1	5	12	1	0	1	0	1	15	5	20	99	0	0	1	3	"0"	"0"	76.4523	5	5	1	3	350	250	250	"-"	24	1.0	4	2	3	4	2	-39	3	4	12		3	1	9
11002	1205	110	1	2	10	1	0.0	0.0	1	25	3	9	2	3	4	4	0	1	1	0	0	3	3	4	5	4	5	0	0	3	5	1	3	7	44	99	99	0	0	0	0	26	1	5	12	1	0	4	0	1	10	5	21	99	0	0	1	0	"0"	"0"	40.851303	1	1	0	2	400	300	400	"-"	29	1.0	4	2	3	4	2	-39	3	4	12		3	1	9
11009	99	110	1	9	10	1	1.875	3.5	1	25	3	9	2	3	2	1	1	1	1	0	0	1	3	2	3	4	5	0	0	1	3	1	2	23	21	6	99	5	1	0	0	22	1	99	106	999	999	999	999	5	22	1	27	205	0	0	2	3	"0"	"0"	36.2598	1	5	2	0	300	400	375	"1.875"	28	1.0	4	2	3	4	2	-39	3	4	12		3	1	9
11011	99	110	1	11	10	1	0.0	3.5	1	25	3	9	2	3	1	2	1	1	2	0	0	3	3	4	5	4	5	0	0	3	3	5	1	24	12	2	5	5	1	5	1	16	1	99	106	999	999	999	999	5	27	5	27	99	0	0	1	2	"0"	"0"	91.61771	5	5	0	0	400	400	400	"-"	27	1.0	4	2	3	4	2	-39	3	4	12		3	1	9
11010	1207	110	1	10	10	1	0.0	3.5	1	25	3	9	2	3	3	3	0	2	2	0	0	1	5	2	3	6	7	0	0	2	5	1	1	24	33	99	99	0	0	0	0	30	1	7	14	1	0	2	0	1	17	5	23	99	0	0	1	4	"0"	"0"	80.53722	5	5	1	2	350	300	300	"-"	28	1.0	4	2	3	4	2	-39	3	4	12		3	1	9
11008	1206	110	1	8	10	1	0.0	1.625	1	25	3	9	2	3	4	1	0	1	1	0	0	3	4	4	5	5	6	0	0	4	5	1	1	23	41	99	99	0	0	0	0	29	1	6	13	1	0	2	0	1	22	5	24	99	0	0	1	1	"0"	"0"	78.7042	5	5	1	2	350	300	300	"-"	26	1.0	4	2	3	4	2	-39	3	4	12		3	1	9
11013	1207	110	1	13	10	1	0.0	3.5	1	25	3	9	2	3	4	2	0	1	2	0	0	2	3	3	4	4	5	0	0	4	4	1	1	24	42	99	99	0	0	0	0	30	1	7	14	1	0	2	0	1	18	5	26	99	0	0	0	2	"0"	"0"	38.407734	1	5	1	1	350	350	350	"-"	26	1.0	4	2	3	4	2	-39	3	4	12		3	1	9
11014	99	110	1	14	10	1	0.0	3.5	1	25	3	9	2	3	1	3	1	1	2	0	0	3	3	4	5	4	5	0	0	5	5	1	1	21	13	7	99	1	1	0	0	16	1	99	106	999	999	999	999	1	26	5	27	99	0	0	0	1	"0"	"0"	17.362198	1	5	2	2	300	300	300	"-"	28	1.0	4	2	3	4	2	-39	3	4	12		3	1	9
11004	99	110	1	4	10	1	0.0	1.625	1	25	3	9	2	3	2	2	1	2	1	0	0	1	3	2	3	4	5	0	0	2	5	5	3	21	22	5	99	5	2	0	0	18	1	99	106	999	999	999	999	5	18	1	25	205	0	0	1	4	"0"	"0"	59.670826	5	5	1	2	350	300	275	"-"	27	1.0	4	2	3	4	2	-39	3	4	12		3	1	9
11012	1204	110	1	12	10	1	0.0	3.5	1	25	3	9	2	3	4	3	0	2	1	0	0	3	3	4	5	4	5	0	0	5	5	1	1	24	43	99	99	0	0	0	0	29	1	4	11	5	0	1	0	5	24	5	26	99	0	0	1	1	"0"	"0"	71.05564	5	5	2	2	300	300	300	"-"	27	1.0	4	2	3	4	2	-39	3	4	12		3	1	9
11114	1201	111	1	14	11	1	0.0	3.5	1	25	3	9	2	4	1	3	0	1	2	0	0	3	3	4	5	4	5	0	0	5	5	1	3	26	13	99	99	0	0	0	0	27	1	1	8	1	5	1	3	1	24	5	27	99	0	0	0	1	"0"	"0"	17.362198	1	5	1	1	350	350	350	"-"	29	1.0	3	1	4	3	1	-39	1	3	6		2	1	9
11102	99	111	1	2	11	1	0.0	0.0	1	25	3	9	2	4	4	4	1	1	1	0	0	3	3	4	5	4	5	0	0	3	5	1	1	19	44	2	99	1	1	0	0	16	1	99	106	999	999	999	999	1	19	5	27	99	0	0	1	0	"0"	"0"	40.851303	1	1	1	1	350	350	350	"-"	27	1.0	3	1	4	3	1	-39	1	3	6		2	1	9
11107	99	111	1	7	11	1	0.0	1.875	1	25	3	9	2	4	3	2	1	1	2	0	0	1	5	2	3	6	7	0	0	2	6	1	2	13	32	1	99	1	1			18	1	99	106	999	999	999	999	1	24	5	25	99	0	0	1	3	"0"	"0"	76.4523	5	5	2	2	300	300	300	"-"	27	1.0	3	1	4	3	1	-39	1	3	6		2	1	9
11104	1202	111	1	4	11	1	0.0	1.875	1	25	3	9	2	4	2	2	0	2	1	0	0	1	3	2	3	4	5	0	0	2	5	1	2	11	22	99	99	0	0	0	0	28	1	2	9	1	1	1	1	1	17	5	25	99	0	0	1	4	"0"	"0"	59.670826	5	5	2	1	300	350	350	"-"	27	1.0	3	1	4	3	1	-39	1	3	6		2	1	9
11103	99	111	1	3	11	1	1.875	1.875	1	25	3	9	2	4	3	4	1	1	1	0	0	3	5	4	5	6	7	0	0	4	6	1	1	22	34	6	99	5	2			10	1	99	106	999	999	999	999	1	26	1	26	201	0	0	2	2	"0"	"0"	3.3971956	1	1	0	2	400	300	375	"1.875"	28	1.0	3	1	4	3	1	-39	1	3	6		2	1	9
11115	1206	111	1	15	11	1	0.0	3.5	1	25	3	9	2	4	1	2	0	2	2	0	0	3	4	4	5	5	6	0	0	3	4	1	3	27	12	99	99	0	0	0	0	30	1	6	13	5	0	4	0	1	19	5	24	99	0	0	1	0	"0"	"0"	4.01231	1	1	1	0	350	400	350	"-"	27	1.0	3	1	4	3	1	-39	1	3	6		2	1	9
11112	99	111	1	12	11	1	0.0	3.5	1	25	3	9	2	4	4	3	1	2	1	0	0	3	3	4	5	4	5	0	0	5	5	5	1	25	43	3	99	5	1	0	0	18	1	99	106	999	999	999	999	5	14	1	25	205	0	0	1	1	"0"	"0"	71.05564	5	5	1	1	350	350	325	"-"	27	1.0	3	1	4	3	1	-39	1	3	6		2	1	9
11113	99	111	1	13	11	1	0.0	3.5	1	25	3	9	2	4	4	2	1	1	2	0	0	2	3	3	4	4	5	0	0	4	4	5	1	21	42	99	99	0	0	0	0	30	1	99	106	999	999	999	999	5	29	1	26	205	0	0	0	2	"0"	"0"	38.407734	1	5	0	0	400	400	375	"-"	29	1.0	3	1	4	3	1	-39	1	3	6		2	1	9
11108	99	111	1	8	11	1	0.0	1.875	1	25	3	9	2	4	4	1	1	1	1	0	0	3	4	4	5	5	6	0	0	4	5	1	1	18	41	1	99	1	1	0	0	21	1	99	106	999	999	999	999	1	26	1	24	201	0	0	1	1	"0"	"0"	78.7042	5	5	0	1	400	350	325	"-"	26	1.0	3	1	4	3	1	-39	1	3	6		2	1	9
11105	1203	111	1	5	11	1	0.0	1.875	1	25	3	9	2	4	1	1	0	1	1	0	0	3	5	4	5	6	7	0	0	3	5	1	3	17	11	99	99	0	0	0	0	27	1	3	10	1	0	1	0	1	20	5	24	99	0	0	2	3	"0"	"0"	95.991936	5	5	1	1	350	350	350	"-"	27	1.0	3	1	4	3	1	-39	1	3	6		2	1	9
11109	1201	111	1	9	11	1	1.625	3.5	1	25	3	9	2	4	2	1	0	1	1	0	0	1	3	2	3	4	5	0	0	1	3	1	3	21	21	99	99	0	0	0	0	26	1	1	8	5	5	3	3	5	14	1	16	205	0	0	2	3	"0"	"0"	36.2598	1	5	3	1	250	350	325	"1.625"	24	1.0	3	1	4	3	1	-39	1	3	6		2	1	9
11111	1206	111	1	11	11	1	0.0	3.5	1	25	3	9	2	4	1	2	0	1	2	0	0	3	3	4	5	4	5	0	0	3	3	1	3	19	12	99	99	0	0	0	0	29	1	6	13	1	0	1	0	1	21	1	18	201	0	0	1	2	"0"	"0"	91.61771	5	5	1	1	350	350	325	"-"	19	1.0	3	1	4	3	1	-39	1	3	6		2	1	9
11101	1201	111	1	1	11	1	0.0	0.0	1	25	3	9	2	4	1	3	0	2	1	0	0	3	5	4	5	6	7	0	0	3	5	1	1	8	13	99	99	0	0	0	0	28	1	1	8	1	5	2	1	1	18	5	23	99	0	0	2	3	"0"	"0"	38.613735	1	5	1	1	350	350	350	"-"	25	1.0	3	1	4	3	1	-39	1	3	6		2	1	9
11106	1206	111	1	6	11	1	0.0	1.875	1	25	3	9	2	4	1	2	0	1	1	0	0	1	4	2	3	5	6	0	0	2	4	1	3	26	12	99	99	0	0	0	0	28	1	6	13	5	0	1	0	1	16	5	15	99	0	0	1	3	"0"	"0"	91.24404	5	5	2	0	300	400	400	"-"	24	1.0	3	1	4	3	1	-39	1	3	6		2	1	9
11110	99	111	1	10	11	1	0.0	3.5	1	25	3	9	2	4	3	3	1	2	2	0	0	1	5	2	3	6	7	0	0	2	5	5	1	25	33	99	99	0	0	0	0	27	1	99	106	999	999	999	999	5	25	1	14	205	0	0	1	4	"0"	"0"	80.53722	5	5	2	1	300	350	325	"-"	28	1.0	3	1	4	3	1	-39	1	3	6		2	1	9
11202	99	112	1	2	12	1	0.0	0.0	1	25	3	9	2	5	4	4	1	1	1	0	0	3	3	4	5	4	5	0	0	3	5	1	1	2	44	3	99	1	4	0	0	-2	1	99	106	999	999	999	999	1	19	5	13	99	0	0	1	0	"0"	"0"	40.851303	1	1	2	0	300	400	300	"-"	23	1.0	3	1	3	2	3	-49	3	3	6		4	2	11
11208	99	112	1	8	12	1	0.0	1.75	1	25	3	9	2	5	4	1	1	1	1	0	0	3	4	4	5	5	6	0	0	4	5	5	1	16	41	2	99	1	1	0	0	-3	1	99	106	999	999	999	999	5	21	5	12	99	0	0	1	1	"0"	"0"	78.7042	5	5	1	0	350	400	400	"-"	23	1.0	3	1	3	2	3	-49	3	3	6		4	2	11
11201	1201	112	1	1	12	1	0.0	0.0	1	25	3	9	2	5	1	3	0	2	1	0	0	3	5	4	5	6	7	0	0	3	5	5	1	-2	13	99	99	0	0	0	0	25	0	1	8	1	5	2	1	5	9	1	8	205	0	0	2	3	"0"	"0"	38.613735	1	5	2	0	300	400	375	"-"	26	1.0	3	1	3	2	3	-49	3	3	6		4	2	11
11212	99	112	1	12	12	1	0.0	3.25	1	25	3	9	2	5	4	3	1	2	1	0	0	3	3	4	5	4	5	0	0	5	5	1	1	20	43	99	99	0	0	0	0	27	1	99	106	999	999	999	999	1	24	5	27	99	0	0	1	1	"0"	"0"	71.05564	5	5	0	0	400	400	400	"-"	27	1.0	3	1	3	2	3	-49	3	3	6		4	2	11
11209	1202	112	1	9	12	1	1.5	3.25	1	25	3	9	2	5	2	1	0	1	1	0	0	1	3	2	3	4	5	0	0	1	3	5	1	19	21	99	99	0	0	0	0	27	1	2	9	1	0	1	0	1	-5	5	21	99	0	0	2	3	"0"	"0"	36.2598	1	5	4	2	200	300	300	"1.5"	20	1.0	3	1	3	2	3	-49	3	3	6		4	2	11
11213	99	112	1	13	12	1	0.0	3.25	1	25	3	9	2	5	4	2	1	1	2	0	0	2	3	3	4	4	5	0	0	4	4	5	1	18	42	1	99	1	3	0	0	11	1	99	106	999	999	999	999	5	13	5	26	99	0	0	0	2	"0"	"0"	38.407734	1	5	1	1	350	350	350	"-"	25	1.0	3	1	3	2	3	-49	3	3	6		4	2	11
11207	99	112	1	7	12	1	0.0	1.75	1	25	3	9	2	5	3	2	1	1	2	0	0	1	5	2	3	6	7	0	0	2	6	5	1	10	32	3	99	1	1			2	1	99	106	999	999	999	999	5	24	1	14	205	0	0	1	3	"0"	"0"	76.4523	5	5	3	1	250	350	325	"-"	20	1.0	3	1	3	2	3	-49	3	3	6		4	2	11
11210	99	112	1	10	12	1	0.0	3.25	1	25	3	9	2	5	3	3	1	2	2	0	0	1	5	2	3	6	7	0	0	2	5	5	1	23	33	1	99	1	1	0	0	14	1	99	106	999	999	999	999	5	24	1	24	205	0	0	1	4	"0"	"0"	80.53722	5	5	3	0	250	400	375	"-"	27	1.0	3	1	3	2	3	-49	3	3	6		4	2	11
11206	1203	112	1	6	12	1	0.0	1.75	1	25	3	9	2	5	1	2	0	1	1	0	0	1	4	2	3	5	6	0	0	2	4	5	1	4	12	99	99	0	0	0	0	29	0	3	10	1	5	1	1	5	23	1	11	205	0	0	1	3	"0"	"0"	91.24404	5	5	3	1	250	350	325	"-"	21	1.0	3	1	3	2	3	-49	3	3	6		4	2	11
11203	99	112	1	3	12	1	1.75	1.75	1	25	3	9	2	5	3	4	1	1	1	0	0	3	5	4	5	6	7	0	0	4	6	1	1	15	34	99	99	0	0			23	1	99	106	999	999	999	999	1	21	5	24	99	0	0	2	2	"0"	"0"	3.3971956	1	1	1	1	350	350	350	"1.75"	27	1.0	3	1	3	2	3	-49	3	3	6		4	2	11
11214	1201	112	1	14	12	1	0.0	3.25	1	25	3	9	2	5	1	3	0	1	2	0	0	3	3	4	5	4	5	0	0	5	5	5	1	20	13	99	99	0	0	0	0	28	0	1	8	1	5	1	3	5	21	5	15	99	0	0	0	1	"0"	"0"	17.362198	1	5	0	0	400	400	400	"-"	27	1.0	3	1	3	2	3	-49	3	3	6		4	2	11
11215	1203	112	1	15	12	1	0.0	3.25	1	25	3	9	2	5	1	2	0	2	2	0	0	3	4	4	5	5	6	0	0	3	4	5	1	17	12	99	99	0	0	0	0	30	0	3	10	1	1	1	1	1	18	5	21	99	0	0	1	0	"0"	"0"	4.01231	1	1	2	1	300	350	300	"-"	25	1.0	3	1	3	2	3	-49	3	3	6		4	2	11
11211	1203	112	1	11	12	1	0.0	3.25	1	25	3	9	2	5	1	2	0	1	2	0	0	3	3	4	5	4	5	0	0	3	3	5	1	17	12	99	99	0	0	0	0	27	0	3	10	5	5	1	1	5	12	1	27	205	0	0	1	2	"0"	"0"	91.61771	5	5	2	2	300	300	275	"-"	25	1.0	3	1	3	2	3	-49	3	3	6		4	2	11
11204	1203	112	1	4	12	1	0.0	1.75	1	25	3	9	2	5	2	2	0	2	1	0	0	1	3	2	3	4	5	0	0	2	5	5	1	8	22	99	99	0	0	0	0	28	1	3	10	5	0	2	0	5	19	1	20	205	0	0	1	4	"0"	"0"	59.670826	5	5	3	0	250	400	375	"-"	25	1.0	3	1	3	2	3	-49	3	3	6		4	2	11
11205	1206	112	1	5	12	1	0.0	1.75	1	25	3	9	2	5	1	1	0	1	1	0	0	3	5	4	5	6	7	0	0	3	5	5	1	12	11	99	99	0	0	0	0	29	1	6	13	5	5	1	1	5	7	1	26	205	0	0	2	3	"0"	"0"	95.991936	5	5	2	0	300	400	375	"-"	20	1.0	3	1	3	2	3	-49	3	3	6		4	2	11
11306	99	113	1	6	13	1	0.0	1.375	1	25	3	9	2	6	1	2	1	1	1	0	0	1	4	2	3	5	6	0	0	2	4	5	1	22	12	4	99	5	1	0	0	8	1	99	106	999	999	999	999	5	3	1	15	205	0	0	1	3	"0"	"0"	91.24404	5	5	4	2	200	300	275	"-"	23	1.0	2	3	2	3	2	-50	3	3	-9		3	2	0
11303	1204	113	1	3	13	1	1.375	1.375	1	25	3	9	2	6	3	4	0	1	1	0	0	3	5	4	5	6	7	0	0	4	6	5	1	-7	34	99	99	0	0			27	1	4	11	5	0	2	0	5	9	1	21	205	0	0	2	2	"0"	"0"	3.3971956	1	1	2	0	300	400	275	"1.375"	21	1.0	2	3	2	3	2	-50	3	3	-9		3	2	0
11308	99	113	1	8	13	1	0.0	1.375	1	25	3	9	2	6	4	1	1	1	1	0	0	3	4	4	5	5	6	0	0	4	5	5	1	11	41	3	99	1	2	0	0	-2	1	99	106	999	999	999	999	5	26	5	-2	99	0	0	1	1	"0"	"0"	78.7042	5	5	2	1	300	350	350	"-"	23	1.0	2	3	2	3	2	-50	3	3	-9		3	2	0
11309	1203	113	1	9	13	1	1.125	2.5	1	25	3	9	2	6	2	1	0	1	1	0	0	1	3	2	3	4	5	0	0	1	3	5	1	23	21	99	99	0	0	0	0	24	1	3	10	5	0	1	0	5	11	1	14	205	0	0	2	3	"0"	"0"	36.2598	1	5	5	3	150	250	225	"1.125"	25	1.0	2	3	2	3	2	-50	3	3	-9		3	2	0
11315	99	113	1	15	13	1	0.0	2.5	1	25	3	9	2	6	1	2	1	2	2	0	0	3	4	4	5	5	6	0	0	3	4	5	1	23	12	4	99	5	4	0	0	11	1	99	106	999	999	999	999	5	26	5	24	99	0	0	1	0	"0"	"0"	4.01231	1	1	3	2	250	300	250	"-"	28	1.0	2	3	2	3	2	-50	3	3	-9		3	2	0
11301	99	113	1	1	13	1	0.0	0.0	1	25	3	9	2	6	1	3	1	2	1	0	0	3	5	4	5	6	7	0	0	3	5	5	1	9	13	2	99	5	1	0	0	-1	1	99	106	999	999	999	999	5	21	1	22	205	0	0	2	3	"0"	"0"	38.613735	1	5	3	1	250	350	325	"-"	26	1.0	2	3	2	3	2	-50	3	3	-9		3	2	0
11314	99	113	1	14	13	1	0.0	2.5	1	25	3	9	2	6	1	3	1	1	2	0	0	3	3	4	5	4	5	0	0	5	5	5	1	18	13	2	99	1	1	0	0	15	1	99	106	999	999	999	999	5	27	5	21	99	0	0	0	1	"0"	"0"	17.362198	1	5	1	1	350	350	350	"-"	27	1.0	2	3	2	3	2	-50	3	3	-9		3	2	0
11313	99	113	1	13	13	1	0.0	2.5	1	25	3	9	2	6	4	2	1	1	2	0	0	2	3	3	4	4	5	0	0	4	4	5	1	25	42	2	99	5	3	0	0	17	1	99	106	999	999	999	999	5	17	5	26	99	0	0	0	2	"0"	"0"	38.407734	1	5	2	2	300	300	300	"-"	24	1.0	2	3	2	3	2	-50	3	3	-9		3	2	0
11311	99	113	1	11	13	1	0.0	2.5	1	25	3	9	2	6	1	2	1	1	2	0	0	3	3	4	5	4	5	0	0	3	3	1	1	16	12	4	99	1	1	0	0	17	1	99	106	999	999	999	999	1	9	5	3	99	0	0	1	2	"0"	"0"	91.61771	5	5	3	3	250	250	250	"-"	22	1.0	2	3	2	3	2	-50	3	3	-9		3	2	0
11304	1201	113	1	4	13	1	0.0	1.375	1	25	3	9	2	6	2	2	0	2	1	0	0	1	3	2	3	4	5	0	0	2	5	5	1	21	22	99	99	0	0	0	0	28	1	1	8	1	0	4	0	5	12	1	22	205	0	0	1	4	"0"	"0"	59.670826	5	5	4	1	200	350	325	"-"	28	1.0	2	3	2	3	2	-50	3	3	-9		3	2	0
11310	1202	113	1	10	13	1	0.0	2.5	1	25	3	9	2	6	3	3	0	2	2	0	0	1	5	2	3	6	7	0	0	2	5	5	1	12	33	99	99	0	0	0	0	27	1	2	9	5	0	3	0	5	25	1	27	205	0	0	1	4	"0"	"0"	80.53722	5	5	4	1	200	350	325	"-"	28	1.0	2	3	2	3	2	-50	3	3	-9		3	2	0
11302	99	113	1	2	13	1	0.0	0.0	1	25	3	9	2	6	4	4	1	1	1	0	0	3	3	4	5	4	5	0	0	3	5	5	1	12	44	99	99	0	0	0	0	22	1	99	106	999	999	999	999	5	13	5	22	99	0	0	1	0	"0"	"0"	40.851303	1	1	3	1	250	350	250	"-"	24	1.0	2	3	2	3	2	-50	3	3	-9		3	2	0
11307	1207	113	1	7	13	1	0.0	1.375	1	25	3	9	2	6	3	2	0	1	2	0	0	1	5	2	3	6	7	0	0	2	6	5	1	15	32	99	99	0	0			22	1	7	14	5	0	1	0	5	23	1	15	205	0	0	1	3	"0"	"0"	76.4523	5	5	4	0	200	400	375	"-"	26	1.0	2	3	2	3	2	-50	3	3	-9		3	2	0
11305	99	113	1	5	13	1	0.0	1.375	1	25	3	9	2	6	1	1	1	1	1	0	0	3	5	4	5	6	7	0	0	3	5	5	1	21	11	5	7	5	1	5	1	3	1	99	106	999	999	999	999	5	13	1	20	205	0	0	2	3	"0"	"0"	95.991936	5	5	3	1	250	350	325	"-"	27	1.0	2	3	2	3	2	-50	3	3	-9		3	2	0
11312	99	113	1	12	13	1	0.0	2.5	1	25	3	9	2	6	4	3	1	2	1	0	0	3	3	4	5	4	5	0	0	5	5	1	1	9	43	1	99	1	1	0	0	9	1	99	106	999	999	999	999	1	24	5	28	99	0	0	1	1	"0"	"0"	71.05564	5	5	1	1	350	350	350	"-"	24	1.0	2	3	2	3	2	-50	3	3	-9		3	2	0
11405	1206	114	1	5	14	1	0.0	1.125	1	25	3	9	2	7	1	1	0	1	1	0	0	3	5	4	5	6	7	0	0	3	5	5	1	25	11	99	99	0	0	0	0	30	0	6	13	5	5	1	1	5	25	1	26	205	0	0	2	3	"0"	"0"	95.991936	5	5	4	2	200	300	275	"-"	27	1.0	4	1	5	1	4	-5	3	3	10		3	1	11
11401	1203	114	1	1	14	1	0.0	0.0	1	25	3	9	2	7	1	3	0	2	1	0	0	3	5	4	5	6	7	0	0	3	5	5	1	17	13	99	99	0	0	0	0	27	1	3	10	5	0	2	0	5	20	1	24	205	0	0	2	3	"0"	"0"	38.613735	1	5	4	2	200	300	275	"-"	27	1.0	4	1	5	1	4	-5	3	3	10		3	1	11
11414	1203	114	1	14	14	1	0.0	2.125	1	25	3	9	2	7	1	3	0	1	2	0	0	3	3	4	5	4	5	0	0	5	5	5	2	21	13	99	99	0	0	0	0	29	1	3	10	1	0	1	0	5	19	1	24	205	0	0	0	1	"0"	"0"	17.362198	1	5	2	2	300	300	275	"-"	27	1.0	4	1	5	1	4	-5	3	3	10		3	1	11
11403	99	114	1	3	14	1	1.125	1.125	1	25	3	9	2	7	3	4	1	1	1	0	0	3	5	4	5	6	7	0	0	4	6	5	1	24	34	1	99	1	4			2	1	99	106	999	999	999	999	5	26	1	26	205	0	0	2	2	"0"	"0"	3.3971956	1	1	3	1	250	350	225	"1.125"	27	1.0	4	1	5	1	4	-5	3	3	10		3	1	11
11404	1202	114	1	4	14	1	0.0	1.125	1	25	3	9	2	7	2	2	0	2	1	0	0	1	3	2	3	4	5	0	0	2	5	5	1	19	22	99	99	0	0	0	0	29	0	2	9	1	1	1	1	5	23	1	24	205	0	0	1	4	"0"	"0"	59.670826	5	5	5	2	150	300	275	"-"	28	1.0	4	1	5	1	4	-5	3	3	10		3	1	11
11406	1201	114	1	6	14	1	0.0	1.125	1	25	3	9	2	7	1	2	0	1	1	0	0	1	4	2	3	5	6	0	0	2	4	5	1	25	12	99	99	0	0	0	0	29	1	1	8	1	0	1	0	5	24	1	26	205	0	0	1	3	"0"	"0"	91.24404	5	5	5	3	150	250	225	"-"	26	1.0	4	1	5	1	4	-5	3	3	10		3	1	11
11412	99	114	1	12	14	1	0.0	2.125	1	25	3	9	2	7	4	3	1	2	1	0	0	3	3	4	5	4	5	0	0	5	5	1	1	20	43	2	99	5	2	0	0	19	1	99	106	999	999	999	999	1	26	1	25	201	0	0	1	1	"0"	"0"	71.05564	5	5	2	2	300	300	275	"-"	25	1.0	4	1	5	1	4	-5	3	3	10		3	1	11
11415	1201	114	1	15	14	1	0.0	2.125	1	25	3	9	2	7	1	2	0	2	2	0	0	3	4	4	5	5	6	0	0	3	4	5	2	26	12	99	99	0	0	0	0	28	1	1	8	5	0	4	0	5	25	5	28	99	0	0	1	0	"0"	"0"	4.01231	1	1	4	3	200	250	200	"-"	27	1.0	4	1	5	1	4	-5	3	3	10		3	1	11
11413	99	114	1	13	14	1	0.0	2.125	1	25	3	9	2	7	4	2	1	1	2	0	0	2	3	3	4	4	5	0	0	4	4	5	1	23	42	3	99	1	2	0	0	7	1	99	106	999	999	999	999	5	27	1	28	205	0	0	0	2	"0"	"0"	38.407734	1	5	3	3	250	250	225	"-"	26	1.0	4	1	5	1	4	-5	3	3	10		3	1	11
11411	1201	114	1	11	14	1	0.0	2.125	1	25	3	9	2	7	1	2	0	1	2	0	0	3	3	4	5	4	5	0	0	3	3	5	3	25	12	99	99	0	0	0	0	28	1	1	8	1	0	3	0	5	24	1	27	205	0	0	1	2	"0"	"0"	91.61771	5	5	4	4	200	200	175	"-"	25	1.0	4	1	5	1	4	-5	3	3	10		3	1	11
11402	99	114	1	2	14	1	0.0	0.0	1	25	3	9	2	7	4	4	1	1	1	0	0	3	3	4	5	4	5	0	0	3	5	5	4	22	44	1	99	5	4	0	0	21	1	99	106	999	999	999	999	5	23	5	25	99	0	0	1	0	"0"	"0"	40.851303	1	1	4	2	200	300	200	"-"	27	1.0	4	1	5	1	4	-5	3	3	10		3	1	11
11409	1201	114	1	9	14	1	1.0	2.125	1	25	3	9	2	7	2	1	0	1	1	0	0	1	3	2	3	4	5	0	0	1	3	5	2	21	21	99	99	0	0	0	0	29	0	1	8	5	5	3	3	5	18	5	28	99	0	0	2	3	"0"	"0"	36.2598	1	5	6	4	100	200	200	"1"	26	1.0	4	1	5	1	4	-5	3	3	10		3	1	11
11407	99	114	1	7	14	1	0.0	1.125	1	25	3	9	2	7	3	2	1	1	2	0	0	1	5	2	3	6	7	0	0	2	6	5	1	24	32	6	99	5	1			23	1	99	106	999	999	999	999	5	26	1	27	205	0	0	1	3	"0"	"0"	76.4523	5	5	5	1	150	350	325	"-"	28	1.0	4	1	5	1	4	-5	3	3	10		3	1	11
11408	99	114	1	8	14	1	0.0	1.125	1	25	3	9	2	7	4	1	1	1	1	0	0	3	4	4	5	5	6	0	0	4	5	5	2	18	41	99	99	0	0	0	0	29	1	99	106	999	999	999	999	5	24	1	14	205	0	0	1	1	"0"	"0"	78.7042	5	5	3	2	250	300	275	"-"	28	1.0	4	1	5	1	4	-5	3	3	10		3	1	11
11410	99	114	1	10	14	1	0.0	2.125	1	25	3	9	2	7	3	3	1	2	2	0	0	1	5	2	3	6	7	0	0	2	5	5	1	25	33	3	99	1	2	0	0	18	1	99	106	999	999	999	999	5	26	1	25	205	0	0	1	4	"0"	"0"	80.53722	5	5	5	2	150	300	275	"-"	27	1.0	4	1	5	1	4	-5	3	3	10		3	1	11
11513	1307	115	1	13	15	1	0.0	2.25	1	25	3	9	3	1	4	4	0	1	1	76	79	3	5	4	5	6	7	33	35	3	6	1	4	25	44	99	99	0	0	0	0	30	1	7	21	1	0	4	0	1	19	5	25	99	0	0	0	0	"2"	"2"	69.80488	5	5	2	5	300	150	150	"-"	20	1.0	2	2	2	4	1	-40	2	3	9		4	1	10
11514	99	115	1	14	15	1	0.0	2.25	1	25	3	9	3	1	1	3	1	2	1	93	11	3	3	4	5	4	5	29	70	3	5	1	1	24	13	4	5	1	1	5	2	5	1	99	113	999	999	999	999	1	28	1	25	301	0	0	0	0	"1"	"0"	54.7566	5	1	2	4	300	200	275	"-"	23	1.0	2	2	2	4	1	-40	2	3	9		4	1	10
11506	99	115	1	6	15	1	0.0	1.375	1	25	3	9	3	1	2	3	1	2	2	54	74	2	5	3	4	6	7	69	25	4	5	1	1	22	23	5	99	5	1	0	0	15	1	99	113	999	999	999	999	1	28	1	27	301	0	0	0	0	"3"	"0"	77.48673	5	1	3	4	250	200	225	"-"	26	1.0	2	2	2	4	1	-40	2	3	9		4	1	10
11504	1305	115	1	4	15	1	0.0	1.375	1	25	3	9	3	1	3	3	0	1	2	27	79	1	5	2	3	6	7	80	64	3	6	5	4	22	33	99	99	0	0	0	0	29	1	5	19	5	0	2	0	5	15	1	25	305	0	0	0	0	"1"	"2"	94.10929	5	5	2	5	300	150	125	"-"	9	1.0	2	2	2	4	1	-40	2	3	9		4	1	10
11508	99	115	1	8	15	1	0.0	1.375	1	25	3	9	3	1	1	1	1	1	1	70	14	3	3	4	5	4	5	24	39	3	4	1	4	23	11	2	99	5	4	0	0	16	1	99	113	999	999	999	999	5	28	5	28	99	0	0	0	0	"0"	"0"	10.798008	1	1	2	3	300	250	300	"-"	24	1.0	2	2	2	4	1	-40	2	3	9		4	1	10
11502	99	115	1	2	15	1	0.0	0.0	1	25	3	9	3	1	1	3	1	2	2	74	98	3	5	4	5	6	7	87	82	5	7	1	1	19	13	4	5	1	1	1	1	9	1	99	113	999	999	999	999	1	27	1	21	301	0	0	0	0	"3"	"1"	80.53875	5	1	4	6	200	100	175	"-"	22	1.0	2	2	2	4	1	-40	2	3	9		4	1	10
11503	1307	115	1	3	15	1	1.375	1.375	1	25	3	9	3	1	4	4	0	1	1	65	10	3	3	4	5	4	5	15	79	3	5	1	4	17	44	99	99	0	0			27	1	7	21	1	0	2	0	1	16	1	24	301	0	0	0	0	"3"	"0"	58.986652	5	1	2	4	300	200	275	"1.375"	17	1.0	2	2	2	4	1	-40	2	3	9		4	1	10
11515	99	115	1	15	15	1	0.0	2.25	1	25	3	9	3	1	1	3	1	2	2	1	78	1	5	2	3	6	7	6	9	1	5	1	1	27	13	4	5	5	1	5	1	13	1	99	113	999	999	999	999	1	28	1	24	301	0	0	0	0	"2"	"0"	19.697392	1	1	0	4	400	200	375	"-"	20	1.0	2	2	2	4	1	-40	2	3	9		4	1	10
11501	99	115	1	1	15	1	0.0	0.0	1	25	3	9	3	1	1	1	1	2	2	81	82	3	5	4	5	6	7	48	68	4	7	1	2	19	11	2	99	1	2	0	0	18	1	99	113	999	999	999	999	1	22	1	21	301	0	0	0	0	"4"	"1"	83.44404	5	1	3	6	250	100	225	"-"	23	1.0	2	2	2	4	1	-40	2	3	9		4	1	10
11505	99	115	1	5	15	1	0.0	1.375	1	25	3	9	3	1	2	1	1	1	1	1	97	1	5	2	3	6	7	66	75	2	7	1	1	19	21	4	7	1	2	5	1	-3	1	99	113	999	999	999	999	1	22	1	23	301	0	0	0	0	"3"	"0"	52.988457	5	1	1	6	350	100	325	"-"	16	1.0	2	2	2	4	1	-40	2	3	9		4	1	10
11512	99	115	1	12	15	1	0.0	2.25	1	25	3	9	3	1	1	2	1	2	1	22	80	1	5	2	3	6	7	6	88	1	7	1	1	25	12	7	99	5	2	0	0	20	1	99	113	999	999	999	999	1	28	1	27	301	0	0	0	0	"2"	"1"	64.87623	5	1	0	6	400	100	375	"-"	28	1.0	2	2	2	4	1	-40	2	3	9		4	1	10
11510	99	115	1	10	15	1	0.0	2.25	1	25	3	9	3	1	2	3	1	1	1	86	68	3	5	4	5	6	7	62	100	4	7	1	1	22	23	5	99	1	3	0	0	18	1	99	113	999	999	999	999	1	27	1	29	301	0	0	0	0	"2"	"1"	70.85189	5	1	3	6	250	100	225	"-"	27	1.0	2	2	2	4	1	-40	2	3	9		4	1	10
11511	99	115	1	11	15	1	0.0	2.25	1	25	3	9	3	1	1	3	1	2	2	76	63	3	5	4	5	6	7	6	31	3	5	1	1	24	13	4	5	1	1	5	1	4	1	99	113	999	999	999	999	1	27	1	27	301	0	0	0	0	"2"	"1"	36.027615	1	1	2	4	300	200	275	"-"	23	1.0	2	2	2	4	1	-40	2	3	9		4	1	10
11507	1305	115	1	7	15	1	0.0	1.375	1	25	3	9	3	1	3	3	0	2	1	89	19	3	3	4	5	4	5	58	59	4	4	1	4	23	33	99	99	0	0			26	1	5	19	5	0	3	0	1	14	5	25	99	0	0	0	0	"0"	"1"	78.22109	5	5	3	3	250	250	250	"-"	22	1.0	2	2	2	4	1	-40	2	3	9		4	1	10
11509	99	115	1	9	15	1	0.875	2.25	1	25	3	9	3	1	2	1	1	2	2	83	64	3	5	4	5	6	7	99	83	5	7	1	1	25	21	4	7	1	1	5	1	15	1	99	113	999	999	999	999	1	28	1	27	301	0	0	0	0	"2"	"1"	94.397415	5	1	4	6	200	100	175	"0.875"	27	1.0	2	2	2	4	1	-40	2	3	9		4	1	10
11602	1306	116	1	2	16	1	0.0	0.0	1	25	3	9	3	2	1	3	0	2	2	0	0	3	5	4	5	6	7	0	0	5	7	1	3	8	13	99	99	0	0	0	0	27	1	6	20	5	0	3	0	1	18	1	25	301	0	0	0	0	"3"	"1"	80.53875	5	1	3	5	250	150	225	"-"	17	1.0	4	3	1	5	2	-56	3	4	4		3	1	0
11606	99	116	1	6	16	1	0.0	1.625	1	25	3	9	3	2	2	3	1	2	2	0	0	2	5	3	4	6	7	0	0	4	5	1	1	22	23	6	99	1	2	0	0	17	1	99	113	999	999	999	999	1	28	1	23	301	0	0	0	0	"3"	"0"	77.48673	5	1	2	3	300	250	275	"-"	25	1.0	4	3	1	5	2	-56	3	4	4		3	1	0
11612	1303	116	1	12	16	1	0.0	2.875	1	25	3	9	3	2	1	2	0	2	1	0	0	1	5	2	3	6	7	0	0	1	7	5	4	24	12	99	99	0	0	0	0	26	1	3	17	1	1	1	3	1	24	1	27	301	0	0	0	0	"2"	"1"	64.87623	5	1	1	5	350	150	325	"-"	27	1.0	4	3	1	5	2	-56	3	4	4		3	1	0
11614	1306	116	1	14	16	1	0.0	2.875	1	25	3	9	3	2	1	3	0	2	1	0	0	3	3	4	5	4	5	0	0	3	5	1	2	25	13	99	99	0	0	0	0	30	1	6	20	5	0	3	0	1	26	5	29	99	0	0	0	0	"1"	"0"	54.7566	5	1	1	3	350	250	350	"-"	27	1.0	4	3	1	5	2	-56	3	4	4		3	1	0
11603	1304	116	1	3	16	1	1.625	1.625	1	25	3	9	3	2	4	4	0	1	1	0	0	3	3	4	5	4	5	0	0	3	5	5	3	7	44	99	99	0	0			28	1	4	18	1	0	3	0	1	23	1	27	301	0	0	0	0	"3"	"0"	58.986652	5	1	1	3	350	250	325	"1.625"	28	1.0	4	3	1	5	2	-56	3	4	4		3	1	0
11610	99	116	1	10	16	1	0.0	2.875	1	25	3	9	3	2	2	3	1	1	1	0	0	3	5	4	5	6	7	0	0	4	7	1	1	22	23	6	99	5	1	0	0	16	1	99	113	999	999	999	999	5	28	1	25	305	0	0	0	0	"2"	"1"	70.85189	5	1	2	5	300	150	275	"-"	25	1.0	4	3	1	5	2	-56	3	4	4		3	1	0
11609	99	116	1	9	16	1	1.25	2.875	1	25	3	9	3	2	2	1	1	2	2	0	0	3	5	4	5	6	7	0	0	5	7	1	1	22	21	5	99	1	1	0	0	22	1	99	113	999	999	999	999	1	22	5	19	99	0	0	0	0	"2"	"1"	94.397415	5	1	3	5	250	150	250	"1.25"	28	1.0	4	3	1	5	2	-56	3	4	4		3	1	0
11608	1301	116	1	8	16	1	0.0	1.625	1	25	3	9	3	2	1	1	0	1	1	0	0	3	3	4	5	4	5	0	0	3	4	1	4	21	11	99	99	0	0	0	0	28	1	1	15	5	0	4	0	5	22	5	22	99	0	0	0	0	"0"	"0"	10.798008	1	1	1	2	350	300	350	"-"	24	1.0	4	3	1	5	2	-56	3	4	4		3	1	0
11611	1306	116	1	11	16	1	0.0	2.875	1	25	3	9	3	2	1	3	0	2	2	0	0	3	5	4	5	6	7	0	0	3	5	5	4	24	13	99	99	0	0	0	0	30	1	6	20	5	0	3	0	5	25	1	27	305	0	0	0	0	"2"	"1"	36.027615	1	1	1	3	350	250	325	"-"	24	1.0	4	3	1	5	2	-56	3	4	4		3	1	0
11615	1306	116	1	15	16	1	0.0	2.875	1	25	3	9	3	2	1	3	0	2	2	0	0	1	5	2	3	6	7	0	0	1	5	1	2	25	13	99	99	0	0	0	0	29	1	6	20	5	0	3	0	1	27	1	23	301	0	0	0	0	"2"	"0"	19.697392	1	1	1	3	350	250	325	"-"	28	1.0	4	3	1	5	2	-56	3	4	4		3	1	0
11605	99	116	1	5	16	1	0.0	1.625	1	25	3	9	3	2	2	1	1	1	1	0	0	1	5	2	3	6	7	0	0	2	7	1	1	22	21	5	99	5	3	0	0	14	1	99	113	999	999	999	999	1	27	1	28	301	0	0	0	0	"3"	"0"	52.988457	5	1	0	5	400	150	375	"-"	25	1.0	4	3	1	5	2	-56	3	4	4		3	1	0
11613	1304	116	1	13	16	1	0.0	2.875	1	25	3	9	3	2	4	4	0	1	1	0	0	3	5	4	5	6	7	0	0	3	6	1	3	25	44	99	99	0	0	0	0	29	1	4	18	1	0	1	0	1	26	1	23	301	0	0	0	0	"2"	"2"	69.80488	5	5	1	4	350	200	175	"-"	23	1.0	4	3	1	5	2	-56	3	4	4		3	1	0
11601	1301	116	1	1	16	1	0.0	0.0	1	25	3	9	3	2	1	1	0	2	2	0	0	3	5	4	5	6	7	0	0	4	7	1	2	16	11	99	99	0	0	0	0	23	1	1	15	1	0	2	0	1	18	1	22	301	0	0	0	0	"4"	"1"	83.44404	5	1	2	5	300	150	275	"-"	23	1.0	4	3	1	5	2	-56	3	4	4		3	1	0
11607	99	116	1	7	16	1	0.0	1.625	1	25	3	9	3	2	3	3	1	2	1	0	0	3	3	4	5	4	5	0	0	4	4	5	2	15	33	6	99	5	1			23	1	99	113	999	999	999	999	5	27	1	28	305	0	0	0	0	"0"	"1"	78.22109	5	5	2	2	300	300	275	"-"	27	1.0	4	3	1	5	2	-56	3	4	4		3	1	0
11604	99	116	1	4	16	1	0.0	1.625	1	25	3	9	3	2	3	3	1	1	2	0	0	1	5	2	3	6	7	0	0	3	6	1	1	19	33	6	99	5	1	0	0	19	1	99	113	999	999	999	999	1	22	5	24	99	0	0	0	0	"1"	"2"	94.10929	5	5	1	4	350	200	200	"-"	26	1.0	4	3	1	5	2	-56	3	4	4		3	1	0
11714	99	117	1	14	17	1	0.0	3.25	1	25	3	9	3	3	1	3	1	2	1	0	0	3	3	4	5	4	5	0	0	3	5	1	1	26	13	7	99	1	1	0	0	24	1	99	113	999	999	999	999	1	24	5	20	99	0	0	0	0	"1"	"0"	54.7566	5	1	0	2	400	300	400	"-"	24	1.0	2	1	2	3	1	-37	1	2	12		3	1	13
11712	99	117	1	12	17	1	0.0	3.25	1	25	3	9	3	3	1	2	1	2	1	0	0	1	5	2	3	6	7	0	0	1	7	1	2	21	12	2	5	1	1	1	3	22	1	99	113	999	999	999	999	1	26	5	26	99	0	0	0	0	"2"	"1"	64.87623	5	1	2	4	300	200	300	"-"	26	1.0	2	1	2	3	1	-37	1	2	12		3	1	13
11708	99	117	1	8	17	1	0.0	1.875	1	25	3	9	3	3	1	1	1	1	1	0	0	3	3	4	5	4	5	0	0	3	4	5	1	21	11	4	99	5	1	0	0	24	1	99	113	999	999	999	999	5	25	5	25	99	0	0	0	0	"0"	"0"	10.798008	1	1	0	1	400	350	400	"-"	27	1.0	2	1	2	3	1	-37	1	2	12		3	1	13
11710	99	117	1	10	17	1	0.0	3.25	1	25	3	9	3	3	2	3	1	1	1	0	0	3	5	4	5	6	7	0	0	4	7	1	1	21	23	4	7	1	1	1	1	11	1	99	113	999	999	999	999	1	27	1	20	301	0	0	0	0	"2"	"1"	70.85189	5	1	1	4	350	200	325	"-"	30	1.0	2	1	2	3	1	-37	1	2	12		3	1	13
11703	1305	117	1	3	17	1	1.875	1.875	1	25	3	9	3	3	4	4	0	1	1	0	0	3	3	4	5	4	5	0	0	3	5	1	1	18	44	99	99	0	0			26	1	5	19	1	0	4	0	1	9	1	11	301	0	0	0	0	"3"	"0"	58.986652	5	1	0	2	400	300	375	"1.875"	27	1.0	2	1	2	3	1	-37	1	2	12		3	1	13
11709	99	117	1	9	17	1	1.375	3.25	1	25	3	9	3	3	2	1	1	2	2	0	0	3	5	4	5	6	7	0	0	5	7	1	1	23	21	6	99	1	1	0	0	18	1	99	113	999	999	999	999	1	24	1	24	301	0	0	0	0	"2"	"1"	94.397415	5	1	2	4	300	200	275	"1.375"	26	1.0	2	1	2	3	1	-37	1	2	12		3	1	13
11706	99	117	1	6	17	1	0.0	1.875	1	25	3	9	3	3	2	3	1	2	2	0	0	2	5	3	4	6	7	0	0	4	5	1	1	25	23	4	7	1	1	5	1	17	1	99	113	999	999	999	999	1	22	1	19	301	0	0	0	0	"3"	"0"	77.48673	5	1	1	2	350	300	325	"-"	29	1.0	2	1	2	3	1	-37	1	2	12		3	1	13
11704	1307	117	1	4	17	1	0.0	1.875	1	25	3	9	3	3	3	3	0	1	2	0	0	1	5	2	3	6	7	0	0	3	6	1	1	23	33	99	99	0	0	0	0	28	1	7	21	1	0	3	0	1	2	1	26	301	0	0	0	0	"1"	"2"	94.10929	5	5	0	3	400	250	225	"-"	19	1.0	2	1	2	3	1	-37	1	2	12		3	1	13
11707	1307	117	1	7	17	1	0.0	1.875	1	25	3	9	3	3	3	3	0	2	1	0	0	3	3	4	5	4	5	0	0	4	4	1	1	18	33	99	99	0	0			17	1	7	21	5	0	1	0	5	10	5	18	99	0	0	0	0	"0"	"1"	78.22109	5	5	1	1	350	350	350	"-"	25	1.0	2	1	2	3	1	-37	1	2	12		3	1	13
11705	99	117	1	5	17	1	0.0	1.875	1	25	3	9	3	3	2	1	1	1	1	0	0	1	5	2	3	6	7	0	0	2	7	1	1	17	21	6	99	5	1	0	0	19	1	99	113	999	999	999	999	1	21	1	20	301	0	0	0	0	"3"	"0"	52.988457	5	1	1	4	350	200	325	"-"	21	1.0	2	1	2	3	1	-37	1	2	12		3	1	13
11701	99	117	1	1	17	1	0.0	0.0	1	25	3	9	3	3	1	1	1	2	2	0	0	3	5	4	5	6	7	0	0	4	7	1	1	23	11	4	99	1	1	0	0	17	1	99	113	999	999	999	999	1	22	1	16	301	0	0	0	0	"4"	"1"	83.44404	5	1	1	4	350	200	325	"-"	26	1.0	2	1	2	3	1	-37	1	2	12		3	1	13
11715	99	117	1	15	17	1	0.0	3.25	1	25	3	9	3	3	1	3	1	2	2	0	0	1	5	2	3	6	7	0	0	1	5	1	2	27	13	7	99	5	1	0	0	26	1	99	113	999	999	999	999	1	26	5	23	99	0	0	0	0	"2"	"0"	19.697392	1	1	2	2	300	300	300	"-"	22	1.0	2	1	2	3	1	-37	1	2	12		3	1	13
11713	1305	117	1	13	17	1	0.0	3.25	1	25	3	9	3	3	4	4	0	1	1	0	0	3	5	4	5	6	7	0	0	3	6	1	1	26	44	99	99	0	0	0	0	20	1	5	19	5	0	3	0	5	20	1	21	305	0	0	0	0	"2"	"2"	69.80488	5	5	0	3	400	250	225	"-"	29	1.0	2	1	2	3	1	-37	1	2	12		3	1	13
11711	99	117	1	11	17	1	0.0	3.25	1	25	3	9	3	3	1	3	1	2	2	0	0	3	5	4	5	6	7	0	0	3	5	1	1	22	13	7	99	1	1	0	0	20	1	99	113	999	999	999	999	1	19	1	18	301	0	0	0	0	"2"	"1"	36.027615	1	1	0	2	400	300	375	"-"	23	1.0	2	1	2	3	1	-37	1	2	12		3	1	13
11702	99	117	1	2	17	1	0.0	0.0	1	25	3	9	3	3	1	3	1	2	2	0	0	3	5	4	5	6	7	0	0	5	7	1	1	19	13	7	99	5	1	0	0	14	1	99	113	999	999	999	999	1	23	1	22	301	0	0	0	0	"3"	"1"	80.53875	5	1	2	4	300	200	275	"-"	26	1.0	2	1	2	3	1	-37	1	2	12		3	1	13
11813	99	118	1	13	18	1	0.0	3.5	1	25	3	9	3	4	4	4	1	1	1	0	0	3	5	4	5	6	7	0	0	3	6	1	1	20	44	2	99	1	1	0	0	14	1	99	113	999	999	999	999	1	22	1	23	301	0	0	0	0	"2"	"2"	69.80488	5	5	1	2	350	300	275	"-"	27	1.0	4	2	2	4	1	-42	2	2	10		6	2	1
11805	1301	118	1	5	18	1	0.0	1.75	1	25	3	9	3	4	2	1	0	1	1	0	0	1	5	2	3	6	7	0	0	2	7	1	3	12	21	99	99	0	0	0	0	24	1	1	15	1	5	2	1	1	18	5	25	99	0	0	0	0	"3"	"0"	52.988457	5	1	2	3	300	250	300	"-"	27	1.0	4	2	2	4	1	-42	2	2	10		6	2	1
11812	1306	118	1	12	18	1	0.0	3.5	1	25	3	9	3	4	1	2	0	2	1	0	0	1	5	2	3	6	7	0	0	1	7	1	3	4	12	99	99	0	0	0	0	30	1	6	20	1	0	3	0	5	9	5	27	99	0	0	0	0	"2"	"1"	64.87623	5	1	3	3	250	250	250	"-"	22	1.0	4	2	2	4	1	-42	2	2	10		6	2	1
11806	1303	118	1	6	18	1	0.0	1.75	1	25	3	9	3	4	2	3	0	2	2	0	0	2	5	3	4	6	7	0	0	4	5	1	3	22	23	99	99	0	0	0	0	26	1	3	17	1	5	1	1	1	23	5	26	99	0	0	0	0	"3"	"0"	77.48673	5	1	0	1	400	350	400	"-"	27	1.0	4	2	2	4	1	-42	2	2	10		6	2	1
11801	1303	118	1	1	18	1	0.0	0.0	1	25	3	9	3	4	1	1	0	2	2	0	0	3	5	4	5	6	7	0	0	4	7	1	3	11	11	99	99	0	0	0	0	24	1	3	17	1	0	1	0	5	15	1	18	305	0	0	0	0	"4"	"1"	83.44404	5	1	0	3	400	250	375	"-"	23	1.0	4	2	2	4	1	-42	2	2	10		6	2	1
11803	99	118	1	3	18	1	1.75	1.75	1	25	3	9	3	4	4	4	1	1	1	0	0	3	3	4	5	4	5	0	0	3	5	1	1	17	44	2	99	1	3			2	1	99	113	999	999	999	999	1	23	5	28	99	0	0	0	0	"3"	"0"	58.986652	5	1	1	1	350	350	350	"1.75"	28	1.0	4	2	2	4	1	-42	2	2	10		6	2	1
11811	1301	118	1	11	18	1	0.0	3.5	1	25	3	9	3	4	1	3	0	2	2	0	0	3	5	4	5	6	7	0	0	3	5	1	3	23	13	99	99	0	0	0	0	30	1	1	15	1	5	1	1	1	27	5	28	99	0	0	0	0	"2"	"1"	36.027615	1	1	1	1	350	350	350	"-"	28	1.0	4	2	2	4	1	-42	2	2	10		6	2	1
11802	1301	118	1	2	18	1	0.0	0.0	1	25	3	9	3	4	1	3	0	2	2	0	0	3	5	4	5	6	7	0	0	5	7	1	3	10	13	99	99	0	0	0	0	27	1	1	15	1	1	1	1	1	15	5	25	99	0	0	0	0	"3"	"1"	80.53875	5	1	1	3	350	250	350	"-"	24	1.0	4	2	2	4	1	-42	2	2	10		6	2	1
11815	1301	118	1	15	18	1	0.0	3.5	1	25	3	9	3	4	1	3	0	2	2	0	0	1	5	2	3	6	7	0	0	1	5	1	3	22	13	99	99	0	0	0	0	29	1	1	15	5	5	1	1	5	11	5	28	99	0	0	0	0	"2"	"0"	19.697392	1	1	3	1	250	350	250	"-"	24	1.0	4	2	2	4	1	-42	2	2	10		6	2	1
11809	1301	118	1	9	18	1	1.75	3.5	1	25	3	9	3	4	2	1	0	2	2	0	0	3	5	4	5	6	7	0	0	5	7	1	3	22	21	99	99	0	0	0	0	27	1	1	15	1	5	1	1	1	25	5	24	99	0	0	0	0	"2"	"1"	94.397415	5	1	1	3	350	250	350	"1.75"	26	1.0	4	2	2	4	1	-42	2	2	10		6	2	1
11810	1303	118	1	10	18	1	0.0	3.5	1	25	3	9	3	4	2	3	0	1	1	0	0	3	5	4	5	6	7	0	0	4	7	1	3	14	23	99	99	0	0	0	0	27	1	3	17	1	1	1	1	1	25	5	27	99	0	0	0	0	"2"	"1"	70.85189	5	1	0	3	400	250	400	"-"	29	1.0	4	2	2	4	1	-42	2	2	10		6	2	1
11808	1303	118	1	8	18	1	0.0	1.75	1	25	3	9	3	4	1	1	0	1	1	0	0	3	3	4	5	4	5	0	0	3	4	1	3	18	11	99	99	0	0	0	0	29	1	3	17	5	0	1	0	5	18	5	27	99	0	0	0	0	"0"	"0"	10.798008	1	1	1	0	350	400	350	"-"	26	1.0	4	2	2	4	1	-42	2	2	10		6	2	1
11804	99	118	1	4	18	1	0.0	1.75	1	25	3	9	3	4	3	3	1	1	2	0	0	1	5	2	3	6	7	0	0	3	6	1	3	9	33	99	99	0	0	0	0	28	1	99	113	999	999	999	999	1	20	5	24	99	0	0	0	0	"1"	"2"	94.10929	5	5	1	2	350	300	300	"-"	28	1.0	4	2	2	4	1	-42	2	2	10		6	2	1
11814	1301	118	1	14	18	1	0.0	3.5	1	25	3	9	3	4	1	3	0	2	1	0	0	3	3	4	5	4	5	0	0	3	5	1	3	20	13	99	99	0	0	0	0	29	1	1	15	1	5	1	2	1	24	5	29	99	0	0	0	0	"1"	"0"	54.7566	5	1	1	1	350	350	350	"-"	28	1.0	4	2	2	4	1	-42	2	2	10		6	2	1
11807	99	118	1	7	18	1	0.0	1.75	1	25	3	9	3	4	3	3	1	2	1	0	0	3	3	4	5	4	5	0	0	4	4	1	1	23	33	99	99	0	0			28	1	99	113	999	999	999	999	1	19	5	28	99	0	0	0	0	"0"	"1"	78.22109	5	5	0	0	400	400	400	"-"	28	1.0	4	2	2	4	1	-42	2	2	10		6	2	1
11907	99	119	1	7	19	1	0.0	1.5	1	25	3	9	3	5	3	3	1	2	1	0	0	3	3	4	5	4	5	0	0	4	4	5	4	24	33	1	99	5	3			22	1	99	113	999	999	999	999	5	28	5	28	99	0	0	0	0	"0"	"1"	78.22109	5	5	1	1	350	350	350	"-"	29	1.0	3	4	3	4	3	1	4	2	20		4	1	14
11914	1301	119	1	14	19	1	0.0	3.5	1	25	3	9	3	5	1	3	0	2	1	0	0	3	3	4	5	4	5	0	0	3	5	5	4	26	13	99	99	0	0	0	0	30	0	1	15	1	5	1	2	5	26	5	28	99	0	0	0	0	"1"	"0"	54.7566	5	1	2	0	300	400	300	"-"	30	1.0	3	4	3	4	3	1	4	2	20		4	1	14
11902	1301	119	1	2	19	1	0.0	0.0	1	25	3	9	3	5	1	3	0	2	2	0	0	3	5	4	5	6	7	0	0	5	7	5	4	22	13	99	99	0	0	0	0	28	0	1	15	1	1	1	1	5	9	5	29	99	0	0	0	0	"3"	"1"	80.53875	5	1	0	2	400	300	400	"-"	29	1.0	3	4	3	4	3	1	4	2	20		4	1	14
11909	1302	119	1	9	19	1	2.0	3.5	1	25	3	9	3	5	2	1	0	2	2	0	0	3	5	4	5	6	7	0	0	5	7	5	3	25	21	99	99	0	0	0	0	29	1	2	16	1	0	1	0	5	26	5	29	99	0	0	0	0	"2"	"1"	94.397415	5	1	0	2	400	300	400	"2"	29	1.0	3	4	3	4	3	1	4	2	20		4	1	14
11911	1301	119	1	11	19	1	0.0	3.5	1	25	3	9	3	5	1	3	0	2	2	0	0	3	5	4	5	6	7	0	0	3	5	5	3	26	13	99	99	0	0	0	0	30	0	1	15	1	5	1	1	5	28	5	28	99	0	0	0	0	"2"	"1"	36.027615	1	1	2	0	300	400	300	"-"	30	1.0	3	4	3	4	3	1	4	2	20		4	1	14
11913	99	119	1	13	19	1	0.0	3.5	1	25	3	9	3	5	4	4	1	1	1	0	0	3	5	4	5	6	7	0	0	3	6	1	3	21	44	3	99	5	3	0	0	19	1	99	113	999	999	999	999	5	24	5	27	99	0	0	0	0	"2"	"2"	69.80488	5	5	2	1	300	350	350	"-"	30	1.0	3	4	3	4	3	1	4	2	20		4	1	14
11905	1302	119	1	5	19	1	0.0	1.5	1	25	3	9	3	5	2	1	0	1	1	0	0	1	5	2	3	6	7	0	0	2	7	5	3	21	21	99	99	0	0	0	0	28	1	2	16	5	0	3	0	5	25	5	26	99	0	0	0	0	"3"	"0"	52.988457	5	1	3	2	250	300	250	"-"	28	1.0	3	4	3	4	3	1	4	2	20		4	1	14
11908	1306	119	1	8	19	1	0.0	1.5	1	25	3	9	3	5	1	1	0	1	1	0	0	3	3	4	5	4	5	0	0	3	4	5	3	23	11	99	99	0	0	0	0	29	1	6	20	1	5	3	3	5	26	5	26	99	0	0	0	0	"0"	"0"	10.798008	1	1	2	1	300	350	300	"-"	30	1.0	3	4	3	4	3	1	4	2	20		4	1	14
11915	1301	119	1	15	19	1	0.0	3.5	1	25	3	9	3	5	1	3	0	2	2	0	0	1	5	2	3	6	7	0	0	1	5	5	4	25	13	99	99	0	0	0	0	29	0	1	15	5	5	1	1	5	23	5	29	99	0	0	0	0	"2"	"0"	19.697392	1	1	4	0	200	400	200	"-"	30	1.0	3	4	3	4	3	1	4	2	20		4	1	14
11912	1303	119	1	12	19	1	0.0	3.5	1	25	3	9	3	5	1	2	0	2	1	0	0	1	5	2	3	6	7	0	0	1	7	5	4	25	12	99	99	0	0	0	0	30	0	3	17	1	1	1	3	5	28	5	28	99	0	0	0	0	"2"	"1"	64.87623	5	1	4	2	200	300	200	"-"	30	1.0	3	4	3	4	3	1	4	2	20		4	1	14
11910	1301	119	1	10	19	1	0.0	3.5	1	25	3	9	3	5	2	3	0	1	1	0	0	3	5	4	5	6	7	0	0	4	7	5	3	24	23	99	99	0	0	0	0	30	1	1	15	1	0	3	0	5	27	5	29	99	0	0	0	0	"2"	"1"	70.85189	5	1	1	2	350	300	350	"-"	30	1.0	3	4	3	4	3	1	4	2	20		4	1	14
11901	1306	119	1	1	19	1	0.0	0.0	1	25	3	9	3	5	1	1	0	2	2	0	0	3	5	4	5	6	7	0	0	4	7	5	3	23	11	99	99	0	0	0	0	25	1	6	20	5	1	3	2	5	-9	5	17	99	0	0	0	0	"4"	"1"	83.44404	5	1	1	2	350	300	350	"-"	25	1.0	3	4	3	4	3	1	4	2	20		4	1	14
11904	99	119	1	4	19	1	0.0	1.5	1	25	3	9	3	5	3	3	1	1	2	0	0	1	5	2	3	6	7	0	0	3	6	5	2	22	33	1	99	5	2	0	0	20	1	99	113	999	999	999	999	5	26	5	27	99	0	0	0	0	"1"	"2"	94.10929	5	5	2	1	300	350	350	"-"	29	1.0	3	4	3	4	3	1	4	2	20		4	1	14
11906	1301	119	1	6	19	1	0.0	1.5	1	25	3	9	3	5	2	3	0	2	2	0	0	2	5	3	4	6	7	0	0	4	5	5	3	24	23	99	99	0	0	0	0	30	1	1	15	5	0	1	0	5	28	5	24	99	0	0	0	0	"3"	"0"	77.48673	5	1	1	0	350	400	350	"-"	26	1.0	3	4	3	4	3	1	4	2	20		4	1	14
11903	99	119	1	3	19	1	1.5	1.5	1	25	3	9	3	5	4	4	1	1	1	0	0	3	3	4	5	4	5	0	0	3	5	1	4	22	44	3	99	1	4			21	1	99	113	999	999	999	999	5	22	5	26	99	0	0	0	0	"3"	"0"	58.986652	5	1	2	0	300	400	300	"1.5"	29	1.0	3	4	3	4	3	1	4	2	20		4	1	14
12010	1302	120	1	10	20	1	0.0	3.0	1	25	3	9	3	6	2	3	0	1	1	0	0	3	5	4	5	6	7	0	0	4	7	5	3	20	23	99	99	0	0	0	0	25	1	2	16	5	0	1	0	5	19	5	27	99	0	0	0	0	"2"	"1"	70.85189	5	1	2	1	300	350	300	"-"	18	1.0	3	1	2	2	2	-6	1	5	-11		3	1	15
12014	99	120	1	14	20	1	0.0	3.0	1	25	3	9	3	6	1	3	1	2	1	0	0	3	3	4	5	4	5	0	0	3	5	5	3	20	13	2	99	5	3	0	0	17	1	99	113	999	999	999	999	5	25	5	26	99	0	0	0	0	"1"	"0"	54.7566	5	1	3	1	250	350	250	"-"	25	1.0	3	1	2	2	2	-6	1	5	-11		3	1	15
12006	1302	120	1	6	20	1	0.0	1.25	1	25	3	9	3	6	2	3	0	2	2	0	0	2	5	3	4	6	7	0	0	4	5	5	3	21	23	99	99	0	0	0	0	29	1	2	16	1	0	2	0	1	21	5	24	99	0	0	0	0	"3"	"0"	77.48673	5	1	2	1	300	350	300	"-"	28	1.0	3	1	2	2	2	-6	1	5	-11		3	1	15
12015	99	120	1	15	20	1	0.0	3.0	1	25	3	9	3	6	1	3	1	2	2	0	0	1	5	2	3	6	7	0	0	1	5	5	2	26	13	2	99	5	3	0	0	22	1	99	113	999	999	999	999	5	18	5	27	99	0	0	0	0	"2"	"0"	19.697392	1	1	5	1	150	350	150	"-"	28	1.0	3	1	2	2	2	-6	1	5	-11		3	1	15
12003	99	120	1	3	20	1	1.25	1.25	1	25	3	9	3	6	4	4	1	1	1	0	0	3	3	4	5	4	5	0	0	3	5	1	3	23	44	99	99	0	0			22	1	99	113	999	999	999	999	1	25	5	25	99	0	0	0	0	"3"	"0"	58.986652	5	1	3	1	250	350	250	"1.25"	28	1.0	3	1	2	2	2	-6	1	5	-11		3	1	15
12013	99	120	1	13	20	1	0.0	3.0	1	25	3	9	3	6	4	4	1	1	1	0	0	3	5	4	5	6	7	0	0	3	6	5	3	20	44	99	99	0	0	0	0	29	1	99	113	999	999	999	999	5	23	5	23	99	0	0	0	0	"2"	"2"	69.80488	5	5	3	0	250	400	400	"-"	22	1.0	3	1	2	2	2	-6	1	5	-11		3	1	15
12008	99	120	1	8	20	1	0.0	1.25	1	25	3	9	3	6	1	1	1	1	1	0	0	3	3	4	5	4	5	0	0	3	4	1	3	23	11	5	7	1	3	5	3	15	1	99	113	999	999	999	999	1	26	5	27	99	0	0	0	0	"0"	"0"	10.798008	1	1	3	2	250	300	250	"-"	23	1.0	3	1	2	2	2	-6	1	5	-11		3	1	15
12009	1303	120	1	9	20	1	1.75	3.0	1	25	3	9	3	6	2	1	0	2	2	0	0	3	5	4	5	6	7	0	0	5	7	5	3	21	21	99	99	0	0	0	0	28	1	3	17	1	0	1	0	1	24	5	23	99	0	0	0	0	"2"	"1"	94.397415	5	1	1	1	350	350	350	"1.75"	25	1.0	3	1	2	2	2	-6	1	5	-11		3	1	15
12001	99	120	1	1	20	1	0.0	0.0	1	25	3	9	3	6	1	1	1	2	2	0	0	3	5	4	5	6	7	0	0	4	7	1	2	22	11	5	7	5	3	1	2	11	1	99	113	999	999	999	999	5	23	5	25	99	0	0	0	0	"4"	"1"	83.44404	5	1	2	1	300	350	300	"-"	25	1.0	3	1	2	2	2	-6	1	5	-11		3	1	15
12007	1302	120	1	7	20	1	0.0	1.25	1	25	3	9	3	6	3	3	0	2	1	0	0	3	3	4	5	4	5	0	0	4	4	5	3	24	33	99	99	0	0			30	1	2	16	5	0	1	0	5	25	5	25	99	0	0	0	0	"0"	"1"	78.22109	5	5	2	2	300	300	300	"-"	27	1.0	3	1	2	2	2	-6	1	5	-11		3	1	15
12011	99	120	1	11	20	1	0.0	3.0	1	25	3	9	3	6	1	3	1	2	2	0	0	3	5	4	5	6	7	0	0	3	5	5	2	25	13	2	99	5	3	0	0	12	1	99	113	999	999	999	999	5	25	5	15	99	0	0	0	0	"2"	"1"	36.027615	1	1	3	1	250	350	250	"-"	18	1.0	3	1	2	2	2	-6	1	5	-11		3	1	15
12012	99	120	1	12	20	1	0.0	3.0	1	25	3	9	3	6	1	2	1	2	1	0	0	1	5	2	3	6	7	0	0	1	7	5	2	22	12	4	99	1	3	0	0	20	1	99	113	999	999	999	999	5	21	5	26	99	0	0	0	0	"2"	"1"	64.87623	5	1	5	1	150	350	150	"-"	26	1.0	3	1	2	2	2	-6	1	5	-11		3	1	15
12004	1302	120	1	4	20	1	0.0	1.25	1	25	3	9	3	6	3	3	0	1	2	0	0	1	5	2	3	6	7	0	0	3	6	5	3	12	33	99	99	0	0	0	0	29	1	2	16	5	0	1	0	5	22	5	24	99	0	0	0	0	"1"	"2"	94.10929	5	5	3	0	250	400	400	"-"	26	1.0	3	1	2	2	2	-6	1	5	-11		3	1	15
12002	99	120	1	2	20	1	0.0	0.0	1	25	3	9	3	6	1	3	1	2	2	0	0	3	5	4	5	6	7	0	0	5	7	5	2	21	13	2	99	5	3	0	0	17	1	99	113	999	999	999	999	5	23	5	24	99	0	0	0	0	"3"	"1"	80.53875	5	1	1	1	350	350	350	"-"	25	1.0	3	1	2	2	2	-6	1	5	-11		3	1	15
12005	1303	120	1	5	20	1	0.0	1.25	1	25	3	9	3	6	2	1	0	1	1	0	0	1	5	2	3	6	7	0	0	2	7	5	3	14	21	99	99	0	0	0	0	30	1	3	17	5	0	1	0	5	25	5	26	99	0	0	0	0	"3"	"0"	52.988457	5	1	4	1	200	350	200	"-"	28	1.0	3	1	2	2	2	-6	1	5	-11		3	1	15
12115	1303	121	1	15	21	1	0.0	2.375	1	25	3	9	3	7	1	3	0	2	2	0	0	1	5	2	3	6	7	0	0	1	5	5	3	27	13	99	99	0	0	0	0	30	1	3	17	5	0	1	0	5	25	5	17	99	0	0	0	0	"2"	"0"	19.697392	1	1	6	2	100	300	100	"-"	26	1.0	3	2	3	2	2	-34	2	5	9		4	1	3
12101	1306	121	1	1	21	1	0.0	0.0	1	25	3	9	3	7	1	1	0	2	2	0	0	3	5	4	5	6	7	0	0	4	7	5	3	10	11	99	99	0	0	0	0	24	0	6	20	5	1	3	2	1	14	1	18	301	0	0	0	0	"4"	"1"	83.44404	5	1	3	0	250	400	225	"-"	24	1.0	3	2	3	2	2	-34	2	5	9		4	1	3
12110	1303	121	1	10	21	1	0.0	2.375	1	25	3	9	3	7	2	3	0	1	1	0	0	3	5	4	5	6	7	0	0	4	7	5	1	25	23	99	99	0	0	0	0	29	0	3	17	1	1	1	1	1	14	5	28	99	0	0	0	0	"2"	"1"	70.85189	5	1	3	0	250	400	250	"-"	22	1.0	3	2	3	2	2	-34	2	5	9		4	1	3
12111	1303	121	1	11	21	1	0.0	2.375	1	25	3	9	3	7	1	3	0	2	2	0	0	3	5	4	5	6	7	0	0	3	5	5	2	24	13	99	99	0	0	0	0	30	1	3	17	1	0	1	0	1	22	5	27	99	0	0	0	0	"2"	"1"	36.027615	1	1	4	2	200	300	200	"-"	26	1.0	3	2	3	2	2	-34	2	5	9		4	1	3
12109	1301	121	1	9	21	1	1.375	2.375	1	25	3	9	3	7	2	1	0	2	2	0	0	3	5	4	5	6	7	0	0	5	7	5	1	25	21	99	99	0	0	0	0	30	0	1	15	1	5	1	1	5	25	1	27	305	0	0	0	0	"2"	"1"	94.397415	5	1	2	0	300	400	275	"1.375"	24	1.0	3	2	3	2	2	-34	2	5	9		4	1	3
12103	99	121	1	3	21	1	1.0	1.0	1	25	3	9	3	7	4	4	1	1	1	0	0	3	3	4	5	4	5	0	0	3	5	1	2	3	44	1	99	1	2			9	1	99	113	999	999	999	999	1	27	5	20	99	0	0	0	0	"3"	"0"	58.986652	5	1	4	2	200	300	200	"1"	24	1.0	3	2	3	2	2	-34	2	5	9		4	1	3
12105	1301	121	1	5	21	1	0.0	1.0	1	25	3	9	3	7	2	1	0	1	1	0	0	1	5	2	3	6	7	0	0	2	7	5	2	21	21	99	99	0	0	0	0	29	0	1	15	1	5	2	1	5	20	5	28	99	0	0	0	0	"3"	"0"	52.988457	5	1	5	0	150	400	150	"-"	23	1.0	3	2	3	2	2	-34	2	5	9		4	1	3
12113	99	121	1	13	21	1	0.0	2.375	1	25	3	9	3	7	4	4	1	1	1	0	0	3	5	4	5	6	7	0	0	3	6	5	1	18	44	1	99	1	4	0	0	19	1	99	113	999	999	999	999	5	28	1	28	305	0	0	0	0	"2"	"2"	69.80488	5	5	4	1	200	350	325	"-"	23	1.0	3	2	3	2	2	-34	2	5	9		4	1	3
12107	99	121	1	7	21	1	0.0	1.0	1	25	3	9	3	7	3	3	1	2	1	0	0	3	3	4	5	4	5	0	0	4	4	5	3	6	33	3	99	5	1			2	1	99	113	999	999	999	999	5	27	5	24	99	0	0	0	0	"0"	"1"	78.22109	5	5	3	3	250	250	250	"-"	23	1.0	3	2	3	2	2	-34	2	5	9		4	1	3
12106	1303	121	1	6	21	1	0.0	1.0	1	25	3	9	3	7	2	3	0	2	2	0	0	2	5	3	4	6	7	0	0	4	5	5	1	23	23	99	99	0	0	0	0	26	0	3	17	1	5	1	1	5	24	5	25	99	0	0	0	0	"3"	"0"	77.48673	5	1	3	2	250	300	250	"-"	26	1.0	3	2	3	2	2	-34	2	5	9		4	1	3
12104	99	121	1	4	21	1	0.0	1.0	1	25	3	9	3	7	3	3	1	1	2	0	0	1	5	2	3	6	7	0	0	3	6	5	1	23	33	3	99	1	3	0	0	3	1	99	113	999	999	999	999	5	25	1	20	305	0	0	0	0	"1"	"2"	94.10929	5	5	4	1	200	350	325	"-"	21	1.0	3	2	3	2	2	-34	2	5	9		4	1	3
12108	1306	121	1	8	21	1	0.0	1.0	1	25	3	9	3	7	1	1	0	1	1	0	0	3	3	4	5	4	5	0	0	3	4	5	1	25	11	99	99	0	0	0	0	30	0	6	20	1	5	3	3	5	18	5	22	99	0	0	0	0	"0"	"0"	10.798008	1	1	4	3	200	250	200	"-"	27	1.0	3	2	3	2	2	-34	2	5	9		4	1	3
12112	1301	121	1	12	21	1	0.0	2.375	1	25	3	9	3	7	1	2	0	2	1	0	0	1	5	2	3	6	7	0	0	1	7	5	1	18	12	99	99	0	0	0	0	28	1	1	15	5	0	2	0	5	24	1	28	305	0	0	0	0	"2"	"1"	64.87623	5	1	6	0	100	400	75	"-"	23	1.0	3	2	3	2	2	-34	2	5	9		4	1	3
12102	1303	121	1	2	21	1	0.0	0.0	1	25	3	9	3	7	1	3	0	2	2	0	0	3	5	4	5	6	7	0	0	5	7	5	3	15	13	99	99	0	0	0	0	30	1	3	17	5	0	1	0	5	19	1	22	305	0	0	0	0	"3"	"1"	80.53875	5	1	2	0	300	400	275	"-"	27	1.0	3	2	3	2	2	-34	2	5	9		4	1	3
12114	1303	121	1	14	21	1	0.0	2.375	1	25	3	9	3	7	1	3	0	2	1	0	0	3	3	4	5	4	5	0	0	3	5	5	3	26	13	99	99	0	0	0	0	29	1	3	17	1	0	1	0	5	16	5	27	99	0	0	0	0	"1"	"0"	54.7566	5	1	4	2	200	300	200	"-"	25	1.0	3	2	3	2	2	-34	2	5	9		4	1	3
20101	2102	201	2	1	1	1	0.0	0.0	1	25	3	9	1	1	3	1	0	2	2	22	44	1	4	2	3	5	6	36	63	2	5	1	1	12	31	99	99	0	0	0	0	25	1	2	2	1	0	2	0	1	9	5	15	99	2	3	0	0	"0"	"0"	1.1736875	1	5	1	4	350	200	200	"-1.5"	16	1.0	3	4	1	4	4	-50	3	3	-28		3	1	-10
20103	99	201	2	3	1	1	0.5	0.5	1	25	3	9	1	1	2	1	1	2	1	47	97	2	5	3	4	6	7	71	78	4	7	1	1	21	21	4	7	1	1	5	1	5	1	99	99	999	999	999	999	1	21	5	19	99	1	2	0	0	"0"	"0"	91.404854	5	5	3	6	250	100	100	"0.5"	24	1.0	3	4	1	4	4	-50	3	3	-28		3	1	-10
20110	2105	201	2	10	1	1	0.0	1.75	1	25	3	9	1	1	3	3	0	1	2	66	14	3	3	4	5	4	5	38	85	4	5	1	1	22	33	99	99	0	0	0	0	29	1	5	5	1	0	1	0	1	24	1	21	101	2	1	0	0	"0"	"0"	94.91516	5	1	3	4	250	200	225	"-"	22	1.0	3	4	1	4	4	-50	3	3	-28		3	1	-10
20102	2107	201	2	2	1	1	0.0	0.0	1	25	3	9	1	1	3	4	0	1	1	57	12	2	3	3	4	4	5	8	88	2	5	1	1	17	34	99	99	0	0			26	1	7	7	5	0	1	0	5	18	5	20	99	0	2	0	0	"0"	"0"	69.540726	5	5	1	4	350	200	200	"-"	21	1.0	3	4	1	4	4	-50	3	3	-28		3	1	-10
20113	2107	201	2	13	1	1	0.0	1.75	1	25	3	9	1	1	3	4	0	1	2	63	51	3	4	4	5	5	6	62	63	4	5	1	1	1	34	99	99	0	0	0	0	27	1	7	7	5	0	1	0	5	24	5	16	99	1	2	0	0	"0"	"0"	60.091805	5	5	3	4	250	200	200	"-"	25	1.0	3	4	1	4	4	-50	3	3	-28		3	1	-10
20114	99	201	2	14	1	1	0.0	1.75	1	25	3	9	1	1	1	3	1	2	2	80	79	3	5	4	5	6	7	24	30	3	5	1	1	24	13	4	5	1	1	5	1	4	1	99	99	999	999	999	999	1	25	1	22	101	3	2	0	0	"0"	"0"	48.260433	1	1	2	4	300	200	275	"-"	20	1.0	3	4	1	4	4	-50	3	3	-28		3	1	-10
20111	99	201	2	11	1	1	0.0	1.75	1	25	3	9	1	1	1	3	1	2	1	80	82	3	5	4	5	6	7	9	97	3	7	1	1	23	13	4	5	1	1	5	1	-1	1	99	99	999	999	999	999	1	25	1	24	101	3	2	0	0	"0"	"0"	21.472734	1	1	2	6	300	100	275	"-"	26	1.0	3	4	1	4	4	-50	3	3	-28		3	1	-10
20108	99	201	2	8	1	1	0.0	0.5	1	25	3	9	1	1	1	2	1	2	1	4	18	1	3	2	3	4	5	90	28	3	3	1	1	24	12	7	99	5	1	0	0	21	1	99	99	999	999	999	999	1	24	1	24	101	3	1	0	0	"0"	"0"	81.911194	5	1	2	2	300	300	275	"-"	22	1.0	3	4	1	4	4	-50	3	3	-28		3	1	-10
20104	99	201	2	4	1	1	0.0	0.5	1	25	3	9	1	1	1	1	1	2	2	53	25	2	3	3	4	4	5	59	64	3	4	1	1	18	11	2	99	1	1	0	0	17	1	99	99	999	999	999	999	1	17	1	21	101	2	1	0	0	"0"	"0"	3.4278374	1	1	2	3	300	250	275	"-"	21	1.0	3	4	1	4	4	-50	3	3	-28		3	1	-10
20115	99	201	2	15	1	1	0.0	1.75	1	25	3	9	1	1	1	1	1	2	1	3	99	1	5	2	3	6	7	6	61	1	6	1	1	13	11	2	99	1	1	0	0	24	1	99	99	999	999	999	999	1	22	1	13	101	2	2	0	0	"0"	"0"	95.72512	5	5	0	5	400	150	125	"-"	22	1.0	3	4	1	4	4	-50	3	3	-28		3	1	-10
20106	2104	201	2	6	1	1	0.0	0.5	1	25	3	9	1	1	4	1	0	2	2	31	39	1	3	2	3	4	5	97	67	3	5	1	1	10	41	99	99	0	0	0	0	21	1	4	4	1	0	1	0	1	15	1	24	101	2	2	0	0	"0"	"0"	17.124975	1	1	2	4	300	200	275	"-"	24	1.0	3	4	1	4	4	-50	3	3	-28		3	1	-10
20109	2104	201	2	9	1	1	1.25	1.75	1	25	3	9	1	1	4	1	0	2	1	61	84	3	5	4	5	6	7	49	82	4	7	1	1	9	41	99	99	0	0			28	1	4	4	1	0	1	0	1	20	5	25	99	3	0	0	0	"0"	"0"	32.851025	1	1	3	6	250	100	250	"1.25"	21	1.0	3	4	1	4	4	-50	3	3	-28		3	1	-10
20107	2107	201	2	7	1	1	0.0	0.5	1	25	3	9	1	1	4	4	0	1	1	23	15	1	3	2	3	4	5	29	6	1	3	1	1	18	44	99	99	0	0	0	0	28	1	7	7	5	0	1	0	5	22	1	20	105	0	4	0	0	"0"	"0"	17.523638	1	5	0	2	400	300	275	"-"	23	1.0	3	4	1	4	4	-50	3	3	-28		3	1	-10
20105	99	201	2	5	1	1	0.0	0.5	1	25	3	9	1	1	2	3	1	1	2	81	81	3	5	4	5	6	7	9	50	3	6	1	1	21	23	5	99	1	2	0	0	2	1	99	99	999	999	999	999	1	25	1	21	101	4	0	0	0	"0"	"0"	95.41016	5	1	2	5	300	150	275	"-"	25	1.0	3	4	1	4	4	-50	3	3	-28		3	1	-10
20112	99	201	2	12	1	1	0.0	1.75	1	25	3	9	1	1	2	3	1	2	1	74	57	3	4	4	5	5	6	61	33	4	4	1	1	22	23	5	99	5	1	0	0	8	1	99	99	999	999	999	999	1	25	1	20	101	2	2	0	0	"0"	"0"	19.28582	1	1	3	3	250	250	225	"-"	26	1.0	3	4	1	4	4	-50	3	3	-28		3	1	-10
20202	99	202	2	2	2	1	0.0	0.0	1	25	3	9	1	2	3	4	1	1	1	0	0	2	3	3	4	4	5	0	0	2	5	5	3	21	34	3	99	5	3			22	1	99	99	999	999	999	999	1	17	5	27	99	0	2	0	0	"0"	"0"	69.540726	5	5	0	3	400	250	250	"-"	28	1.0	2	1	3	2	3	5	1	5	15		2	1	15
20203	99	202	2	3	2	1	0.75	0.75	1	25	3	9	1	2	2	1	1	2	1	0	0	2	5	3	4	6	7	0	0	4	7	5	3	20	21	5	99	5	2	0	0	23	1	99	99	999	999	999	999	5	25	5	28	99	1	2	0	0	"0"	"0"	91.404854	5	5	2	5	300	150	150	"0.75"	30	1.0	2	1	3	2	3	5	1	5	15		2	1	15
20210	99	202	2	10	2	1	0.0	2.125	1	25	3	9	1	2	3	3	1	1	2	0	0	3	3	4	5	4	5	0	0	4	5	1	1	25	33	6	99	5	4	0	0	20	1	99	99	999	999	999	999	1	28	1	26	101	2	1	0	0	"0"	"0"	94.91516	5	1	2	3	300	250	275	"-"	27	1.0	2	1	3	2	3	5	1	5	15		2	1	15
20215	2101	202	2	15	2	1	0.0	2.125	1	25	3	9	1	2	1	1	0	2	1	0	0	1	5	2	3	6	7	0	0	1	6	1	1	26	11	99	99	0	0	0	0	29	1	1	1	1	0	1	0	1	27	1	28	101	2	2	0	0	"0"	"0"	95.72512	5	5	1	4	350	200	175	"-"	27	1.0	2	1	3	2	3	5	1	5	15		2	1	15
20208	2103	202	2	8	2	1	0.0	0.75	1	25	3	9	1	2	1	2	0	2	1	0	0	1	3	2	3	4	5	0	0	3	3	1	1	25	12	99	99	0	0	0	0	30	1	3	3	1	1	1	2	1	25	5	28	99	3	1	0	0	"0"	"0"	81.911194	5	1	1	1	350	350	350	"-"	29	1.0	2	1	3	2	3	5	1	5	15		2	1	15
20209	2105	202	2	9	2	1	1.375	2.125	1	25	3	9	1	2	4	1	0	2	1	0	0	3	5	4	5	6	7	0	0	4	7	1	1	24	41	99	99	0	0			30	1	5	5	1	0	3	0	1	26	1	27	101	3	0	0	0	"0"	"0"	32.851025	1	1	2	5	300	150	275	"1.375"	27	1.0	2	1	3	2	3	5	1	5	15		2	1	15
20213	99	202	2	13	2	1	0.0	2.125	1	25	3	9	1	2	3	4	1	1	2	0	0	3	4	4	5	5	6	0	0	4	5	1	1	25	34	3	99	1	1	0	0	27	1	99	99	999	999	999	999	1	28	5	25	99	1	2	0	0	"0"	"0"	60.091805	5	5	2	3	300	250	250	"-"	27	1.0	2	1	3	2	3	5	1	5	15		2	1	15
20212	99	202	2	12	2	1	0.0	2.125	1	25	3	9	1	2	2	3	1	2	1	0	0	3	4	4	5	5	6	0	0	4	4	1	2	21	23	6	99	1	2	0	0	16	1	99	99	999	999	999	999	1	27	1	27	101	2	2	0	0	"0"	"0"	19.28582	1	1	2	2	300	300	275	"-"	29	1.0	2	1	3	2	3	5	1	5	15		2	1	15
20206	2105	202	2	6	2	1	0.0	0.75	1	25	3	9	1	2	4	1	0	2	2	0	0	1	3	2	3	4	5	0	0	3	5	1	1	23	41	99	99	0	0	0	0	29	1	5	5	5	0	1	0	1	22	1	26	101	2	2	0	0	"0"	"0"	17.124975	1	1	1	3	350	250	325	"-"	28	1.0	2	1	3	2	3	5	1	5	15		2	1	15
20205	99	202	2	5	2	1	0.0	0.75	1	25	3	9	1	2	2	3	1	1	2	0	0	3	5	4	5	6	7	0	0	3	6	1	2	22	23	6	99	5	1	0	0	21	1	99	99	999	999	999	999	1	26	1	28	101	4	0	0	0	"0"	"0"	95.41016	5	1	1	4	350	200	325	"-"	24	1.0	2	1	3	2	3	5	1	5	15		2	1	15
20201	99	202	2	1	2	1	0.0	0.0	1	25	3	9	1	2	3	1	1	2	2	0	0	1	4	2	3	5	6	0	0	2	5	1	1	23	31	1	99	1	2	0	0	21	1	99	99	999	999	999	999	1	23	5	26	99	2	3	0	0	"0"	"0"	1.1736875	1	5	0	3	400	250	250	"-"	28	1.0	2	1	3	2	3	5	1	5	15		2	1	15
20207	2104	202	2	7	2	1	0.0	0.75	1	25	3	9	1	2	4	4	0	1	1	0	0	1	3	2	3	4	5	0	0	1	3	1	1	24	44	99	99	0	0	0	0	29	1	4	4	1	0	1	0	1	23	5	24	99	0	4	0	0	"0"	"0"	17.523638	1	5	1	1	350	350	350	"-"	27	1.0	2	1	3	2	3	5	1	5	15		2	1	15
20204	2101	202	2	4	2	1	0.0	0.75	1	25	3	9	1	2	1	1	0	2	2	0	0	2	3	3	4	4	5	0	0	3	4	1	2	16	11	99	99	0	0	0	0	27	1	1	1	1	0	1	0	1	23	5	18	99	2	1	0	0	"0"	"0"	3.4278374	1	1	1	2	350	300	350	"-"	29	1.0	2	1	3	2	3	5	1	5	15		2	1	15
20211	2106	202	2	11	2	1	0.0	2.125	1	25	3	9	1	2	1	3	0	2	1	0	0	3	5	4	5	6	7	0	0	3	7	1	1	24	13	99	99	0	0	0	0	30	1	6	6	1	0	1	0	1	25	1	28	101	3	2	0	0	"0"	"0"	21.472734	1	1	1	5	350	150	325	"-"	29	1.0	2	1	3	2	3	5	1	5	15		2	1	15
20214	2106	202	2	14	2	1	0.0	2.125	1	25	3	9	1	2	1	3	0	2	2	0	0	3	5	4	5	6	7	0	0	3	5	1	1	26	13	99	99	0	0	0	0	29	1	6	6	1	0	2	0	1	24	1	25	101	3	2	0	0	"0"	"0"	48.260433	1	1	1	3	350	250	325	"-"	29	1.0	2	1	3	2	3	5	1	5	15		2	1	15
20313	2102	203	2	13	3	1	0.0	2.625	1	25	3	9	1	3	3	4	0	1	2	0	0	3	4	4	5	5	6	0	0	4	5	1	1	-2	34	99	99	0	0	0	0	30	1	2	2	1	0	1	0	1	17	1	15	101	1	2	0	0	"0"	"0"	60.091805	5	5	1	2	350	300	275	"-"	26	1.0	4	1	3	2	2	-58	2	4	5		4	1	11
20309	2106	203	2	9	3	1	1.75	2.625	1	25	3	9	1	3	4	1	0	2	1	0	0	3	5	4	5	6	7	0	0	4	7	5	3	0	41	99	99	0	0			30	1	6	6	5	0	1	0	5	23	5	28	99	3	0	0	0	"0"	"0"	32.851025	1	1	1	4	350	200	350	"1.75"	23	1.0	4	1	3	2	2	-58	2	4	5		4	1	11
20306	2106	203	2	6	3	1	0.0	0.875	1	25	3	9	1	3	4	1	0	2	2	0	0	1	3	2	3	4	5	0	0	3	5	1	2	-4	41	99	99	0	0	0	0	29	1	6	6	5	0	1	0	1	15	5	27	99	2	2	0	0	"0"	"0"	17.124975	1	1	0	2	400	300	400	"-"	25	1.0	4	1	3	2	2	-58	2	4	5		4	1	11
20308	99	203	2	8	3	1	0.0	0.875	1	25	3	9	1	3	1	2	1	2	1	0	0	1	3	2	3	4	5	0	0	3	3	1	1	16	12	2	5	1	1	1	2	15	1	99	99	999	999	999	999	1	27	1	23	101	3	1	0	0	"0"	"0"	81.911194	5	1	0	0	400	400	375	"-"	22	1.0	4	1	3	2	2	-58	2	4	5		4	1	11
20305	99	203	2	5	3	1	0.0	0.875	1	25	3	9	1	3	2	3	1	1	2	0	0	3	5	4	5	6	7	0	0	3	6	1	1	18	23	4	7	1	1	1	2	12	1	99	99	999	999	999	999	1	26	1	25	101	4	0	0	0	"0"	"0"	95.41016	5	1	0	3	400	250	375	"-"	23	1.0	4	1	3	2	2	-58	2	4	5		4	1	11
20314	99	203	2	14	3	1	0.0	2.625	1	25	3	9	1	3	1	3	1	2	2	0	0	3	5	4	5	6	7	0	0	3	5	1	1	20	13	7	99	1	1	0	0	25	1	99	99	999	999	999	999	1	24	1	23	101	3	2	0	0	"0"	"0"	48.260433	1	1	0	2	400	300	375	"-"	27	1.0	4	1	3	2	2	-58	2	4	5		4	1	11
20302	2102	203	2	2	3	1	0.0	0.0	1	25	3	9	1	3	3	4	0	1	1	0	0	2	3	3	4	4	5	0	0	2	5	1	3	18	34	99	99	0	0			29	1	2	2	5	0	3	0	1	19	5	27	99	0	2	0	0	"0"	"0"	69.540726	5	5	1	2	350	300	300	"-"	22	1.0	4	1	3	2	2	-58	2	4	5		4	1	11
20307	2105	203	2	7	3	1	0.0	0.875	1	25	3	9	1	3	4	4	0	1	1	0	0	1	3	2	3	4	5	0	0	1	3	1	2	10	44	99	99	0	0	0	0	30	1	5	5	5	0	4	0	1	10	5	24	99	0	4	0	0	"0"	"0"	17.523638	1	5	2	0	300	400	400	"-"	20	1.0	4	1	3	2	2	-58	2	4	5		4	1	11
20311	99	203	2	11	3	1	0.0	2.625	1	25	3	9	1	3	1	3	1	2	1	0	0	3	5	4	5	6	7	0	0	3	7	1	1	21	13	7	99	1	1	0	0	24	1	99	99	999	999	999	999	1	27	1	29	101	3	2	0	0	"0"	"0"	21.472734	1	1	0	4	400	200	375	"-"	28	1.0	4	1	3	2	2	-58	2	4	5		4	1	11
20304	99	203	2	4	3	1	0.0	0.875	1	25	3	9	1	3	1	1	1	2	2	0	0	2	3	3	4	4	5	0	0	3	4	1	1	16	11	4	99	1	1	0	0	10	1	99	99	999	999	999	999	1	26	1	27	101	2	1	0	0	"0"	"0"	3.4278374	1	1	0	1	400	350	375	"-"	25	1.0	4	1	3	2	2	-58	2	4	5		4	1	11
20310	2107	203	2	10	3	1	0.0	2.625	1	25	3	9	1	3	3	3	0	1	2	0	0	3	3	4	5	4	5	0	0	4	5	5	3	3	33	99	99	0	0	0	0	30	1	7	7	5	0	1	0	5	19	5	27	99	2	1	0	0	"0"	"0"	94.91516	5	1	1	2	350	300	350	"-"	28	1.0	4	1	3	2	2	-58	2	4	5		4	1	11
20301	2104	203	2	1	3	1	0.0	0.0	1	25	3	9	1	3	3	1	0	2	2	0	0	1	4	2	3	5	6	0	0	2	5	1	2	15	31	99	99	0	0	0	0	25	1	4	4	1	0	1	0	1	22	1	22	101	2	3	0	0	"0"	"0"	1.1736875	1	5	1	2	350	300	275	"-"	27	1.0	4	1	3	2	2	-58	2	4	5		4	1	11
20303	99	203	2	3	3	1	0.875	0.875	1	25	3	9	1	3	2	1	1	2	1	0	0	2	5	3	4	6	7	0	0	4	7	1	1	12	21	6	99	1	1	0	0	18	1	99	99	999	999	999	999	1	13	1	23	101	1	2	0	0	"0"	"0"	91.404854	5	5	1	4	350	200	175	"0.875"	29	1.0	4	1	3	2	2	-58	2	4	5		4	1	11
20315	99	203	2	15	3	1	0.0	2.625	1	25	3	9	1	3	1	1	1	2	1	0	0	1	5	2	3	6	7	0	0	1	6	1	1	12	11	4	99	1	1	0	0	26	1	99	99	999	999	999	999	1	20	5	26	99	2	2	0	0	"0"	"0"	95.72512	5	5	2	3	300	250	250	"-"	21	1.0	4	1	3	2	2	-58	2	4	5		4	1	11
20312	99	203	2	12	3	1	0.0	2.625	1	25	3	9	1	3	2	3	1	2	1	0	0	3	4	4	5	5	6	0	0	4	4	1	1	6	23	4	7	1	1	1	1	20	1	99	99	999	999	999	999	1	27	5	27	99	2	2	0	0	"0"	"0"	19.28582	1	1	1	1	350	350	350	"-"	27	1.0	4	1	3	2	2	-58	2	4	5		4	1	11
20401	99	204	2	1	4	1	0.0	0.0	1	25	3	9	1	4	3	1	1	2	2	0	0	1	4	2	3	5	6	0	0	2	5	5	1	21	31	3	99	1	1	0	0	18	1	99	99	999	999	999	999	5	20	1	23	105	2	3	0	0	"0"	"0"	1.1736875	1	5	2	1	300	350	325	"-"	27	1.0	3	1	3	4	4	-40	1	5	17		2	1	12
20410	99	204	2	10	4	1	0.0	3.125	1	25	3	9	1	4	3	3	1	1	2	0	0	3	3	4	5	4	5	0	0	4	5	1	1	18	33	99	99	0	0	0	0	29	1	99	99	999	999	999	999	1	27	5	26	99	2	1	0	0	"0"	"0"	94.91516	5	1	0	1	400	350	400	"-"	28	1.0	3	1	3	4	4	-40	1	5	17		2	1	12
20405	2103	204	2	5	4	1	0.0	1.25	1	25	3	9	1	4	2	3	0	1	2	0	0	3	5	4	5	6	7	0	0	3	6	1	2	17	23	99	99	0	0	0	0	29	1	3	3	1	1	1	2	1	27	5	26	99	4	0	0	0	"0"	"0"	95.41016	5	1	1	2	350	300	350	"-"	28	1.0	3	1	3	4	4	-40	1	5	17		2	1	12
20414	2101	204	2	14	4	1	0.0	3.125	1	25	3	9	1	4	1	3	0	2	2	0	0	3	5	4	5	6	7	0	0	3	5	1	2	20	13	99	99	0	0	0	0	29	1	1	1	1	5	1	1	1	27	5	26	99	3	2	0	0	"0"	"0"	48.260433	1	1	1	1	350	350	350	"-"	29	1.0	3	1	3	4	4	-40	1	5	17		2	1	12
20407	99	204	2	7	4	1	0.0	1.25	1	25	3	9	1	4	4	4	1	1	1	0	0	1	3	2	3	4	5	0	0	1	3	5	1	24	44	2	99	1	1	0	0	25	1	99	99	999	999	999	999	5	26	1	28	105	0	4	0	0	"0"	"0"	17.523638	1	5	3	1	250	350	325	"-"	29	1.0	3	1	3	4	4	-40	1	5	17		2	1	12
20412	2103	204	2	12	4	1	0.0	3.125	1	25	3	9	1	4	2	3	0	2	1	0	0	3	4	4	5	5	6	0	0	4	4	1	2	23	23	99	99	0	0	0	0	30	1	3	3	1	1	1	1	1	26	5	28	99	2	2	0	0	"0"	"0"	19.28582	1	1	0	0	400	400	400	"-"	29	1.0	3	1	3	4	4	-40	1	5	17		2	1	12
20402	99	204	2	2	4	1	0.0	0.0	1	25	3	9	1	4	3	4	1	1	1	0	0	2	3	3	4	4	5	0	0	2	5	5	1	18	34	6	99	5	1			20	1	99	99	999	999	999	999	5	23	5	28	99	0	2	0	0	"0"	"0"	69.540726	5	5	2	1	300	350	350	"-"	28	1.0	3	1	3	4	4	-40	1	5	17		2	1	12
20413	99	204	2	13	4	1	0.0	3.125	1	25	3	9	1	4	3	4	1	1	2	0	0	3	4	4	5	5	6	0	0	4	5	1	1	23	34	6	99	5	1	0	0	22	1	99	99	999	999	999	999	1	27	5	28	99	1	2	0	0	"0"	"0"	60.091805	5	5	0	1	400	350	350	"-"	29	1.0	3	1	3	4	4	-40	1	5	17		2	1	12
20403	2101	204	2	3	4	1	1.25	1.25	1	25	3	9	1	4	2	1	0	2	1	0	0	2	5	3	4	6	7	0	0	4	7	1	2	8	21	99	99	0	0	0	0	26	1	1	1	1	5	1	1	1	23	5	27	99	1	2	0	0	"0"	"0"	91.404854	5	5	0	3	400	250	250	"1.25"	27	1.0	3	1	3	4	4	-40	1	5	17		2	1	12
20415	2103	204	2	15	4	1	0.0	3.125	1	25	3	9	1	4	1	1	0	2	1	0	0	1	5	2	3	6	7	0	0	1	6	1	2	24	11	99	99	0	0	0	0	30	1	3	3	1	0	1	0	1	26	5	28	99	2	2	0	0	"0"	"0"	95.72512	5	5	3	2	250	300	300	"-"	27	1.0	3	1	3	4	4	-40	1	5	17		2	1	12
20409	99	204	2	9	4	1	1.875	3.125	1	25	3	9	1	4	4	1	1	2	1	0	0	3	5	4	5	6	7	0	0	4	7	1	1	25	41	1	99	1	1			23	1	99	99	999	999	999	999	1	27	1	27	101	3	0	0	0	"0"	"0"	32.851025	1	1	0	3	400	250	375	"1.875"	29	1.0	3	1	3	4	4	-40	1	5	17		2	1	12
20406	99	204	2	6	4	1	0.0	1.25	1	25	3	9	1	4	4	1	1	2	2	0	0	1	3	2	3	4	5	0	0	3	5	1	2	19	41	1	99	1	1	0	0	22	1	99	99	999	999	999	999	1	24	5	28	99	2	2	0	0	"0"	"0"	17.124975	1	1	1	1	350	350	350	"-"	29	1.0	3	1	3	4	4	-40	1	5	17		2	1	12
20404	2103	204	2	4	4	1	0.0	1.25	1	25	3	9	1	4	1	1	0	2	2	0	0	2	3	3	4	4	5	0	0	3	4	1	2	10	11	99	99	0	0	0	0	30	1	3	3	1	0	1	0	1	25	5	28	99	2	1	0	0	"0"	"0"	3.4278374	1	1	1	0	350	400	350	"-"	29	1.0	3	1	3	4	4	-40	1	5	17		2	1	12
20411	2101	204	2	11	4	1	0.0	3.125	1	25	3	9	1	4	1	3	0	2	1	0	0	3	5	4	5	6	7	0	0	3	7	1	2	20	13	99	99	0	0	0	0	30	1	1	1	1	5	1	1	1	24	5	28	99	3	2	0	0	"0"	"0"	21.472734	1	1	1	3	350	250	350	"-"	29	1.0	3	1	3	4	4	-40	1	5	17		2	1	12
20408	2106	204	2	8	4	1	0.0	1.25	1	25	3	9	1	4	1	2	0	2	1	0	0	1	3	2	3	4	5	0	0	3	3	1	2	20	12	99	99	0	0	0	0	30	1	6	6	5	0	1	0	1	27	5	28	99	3	1	0	0	"0"	"0"	81.911194	5	1	1	1	350	350	350	"-"	28	1.0	3	1	3	4	4	-40	1	5	17		2	1	12
20511	2101	205	2	11	5	1	0.0	3.0	1	25	3	9	1	5	1	3	0	2	1	0	0	3	5	4	5	6	7	0	0	3	7	5	4	26	13	99	99	0	0	0	0	29	0	1	1	1	5	1	1	5	25	1	27	105	3	2	0	0	"0"	"0"	21.472734	1	1	2	2	300	300	275	"-"	27	1.0	1	3	3	2	3	-14	4	3	11		7	2	10
20512	2101	205	2	12	5	1	0.0	3.0	1	25	3	9	1	5	2	3	0	2	1	0	0	3	4	4	5	5	6	0	0	4	4	1	1	25	23	99	99	0	0	0	0	28	1	1	1	5	0	1	0	5	22	1	28	105	2	2	0	0	"0"	"0"	19.28582	1	1	1	1	350	350	325	"-"	23	1.0	1	3	3	2	3	-14	4	3	11		7	2	10
20506	99	205	2	6	5	1	0.0	1.375	1	25	3	9	1	5	4	1	1	2	2	0	0	1	3	2	3	4	5	0	0	3	5	5	1	25	41	2	99	5	1	0	0	18	1	99	99	999	999	999	999	5	27	1	24	105	2	2	0	0	"0"	"0"	17.124975	1	1	2	0	300	400	275	"-"	21	1.0	1	3	3	2	3	-14	4	3	11		7	2	10
20507	99	205	2	7	5	1	0.0	1.375	1	25	3	9	1	5	4	4	1	1	1	0	0	1	3	2	3	4	5	0	0	1	3	5	4	19	44	3	99	5	4	0	0	16	1	99	99	999	999	999	999	5	21	1	27	105	0	4	0	0	"0"	"0"	17.523638	1	5	4	2	200	300	275	"-"	28	1.0	1	3	3	2	3	-14	4	3	11		7	2	10
20504	2106	205	2	4	5	1	0.0	1.375	1	25	3	9	1	5	1	1	0	2	2	0	0	2	3	3	4	4	5	0	0	3	4	5	3	17	11	99	99	0	0	0	0	28	1	6	6	5	5	1	1	5	22	1	27	105	2	1	0	0	"0"	"0"	3.4278374	1	1	2	1	300	350	275	"-"	14	1.0	1	3	3	2	3	-14	4	3	11		7	2	10
20502	99	205	2	2	5	1	0.0	0.0	1	25	3	9	1	5	3	4	1	1	1	0	0	2	3	3	4	4	5	0	0	2	5	5	1	13	34	99	99	0	0			27	1	99	99	999	999	999	999	5	28	1	26	105	0	2	0	0	"0"	"0"	69.540726	5	5	3	0	250	400	375	"-"	28	1.0	1	3	3	2	3	-14	4	3	11		7	2	10
20508	2103	205	2	8	5	1	0.0	1.375	1	25	3	9	1	5	1	2	0	2	1	0	0	1	3	2	3	4	5	0	0	3	3	5	4	18	12	99	99	0	0	0	0	28	0	3	3	1	1	1	2	1	22	1	24	101	3	1	0	0	"0"	"0"	81.911194	5	1	2	2	300	300	275	"-"	29	1.0	1	3	3	2	3	-14	4	3	11		7	2	10
20501	99	205	2	1	5	1	0.0	0.0	1	25	3	9	1	5	3	1	1	2	2	0	0	1	4	2	3	5	6	0	0	2	5	5	4	21	31	6	99	1	1	0	0	6	1	99	99	999	999	999	999	5	21	1	26	105	2	3	0	0	"0"	"0"	1.1736875	1	5	3	0	250	400	375	"-"	27	1.0	1	3	3	2	3	-14	4	3	11		7	2	10
20509	99	205	2	9	5	1	1.625	3.0	1	25	3	9	1	5	4	1	1	2	1	0	0	3	5	4	5	6	7	0	0	4	7	1	1	24	41	2	99	1	3			21	1	99	99	999	999	999	999	1	26	1	25	101	3	0	0	0	"0"	"0"	32.851025	1	1	1	2	350	300	325	"1.625"	29	1.0	1	3	3	2	3	-14	4	3	11		7	2	10
20514	2101	205	2	14	5	1	0.0	3.0	1	25	3	9	1	5	1	3	0	2	2	0	0	3	5	4	5	6	7	0	0	3	5	5	3	19	13	99	99	0	0	0	0	23	0	1	1	1	5	1	1	5	12	1	9	105	3	2	0	0	"0"	"0"	48.260433	1	1	2	0	300	400	275	"-"	10	1.0	1	3	3	2	3	-14	4	3	11		7	2	10
20503	2102	205	2	3	5	1	1.375	1.375	1	25	3	9	1	5	2	1	0	2	1	0	0	2	5	3	4	6	7	0	0	4	7	5	4	20	21	99	99	0	0	0	0	29	1	2	2	5	0	2	0	5	3	1	28	105	1	2	0	0	"0"	"0"	91.404854	5	5	1	2	350	300	275	"1.375"	3	1.0	1	3	3	2	3	-14	4	3	11		7	2	10
20515	2106	205	2	15	5	1	0.0	3.0	1	25	3	9	1	5	1	1	0	2	1	0	0	1	5	2	3	6	7	0	0	1	6	5	4	19	11	99	99	0	0	0	0	29	1	6	6	5	5	2	2	5	24	1	27	105	2	2	0	0	"0"	"0"	95.72512	5	5	4	1	200	350	325	"-"	28	1.0	1	3	3	2	3	-14	4	3	11		7	2	10
20510	99	205	2	10	5	1	0.0	3.0	1	25	3	9	1	5	3	3	1	1	2	0	0	3	3	4	5	4	5	0	0	4	5	5	1	26	33	1	99	1	1	0	0	22	1	99	99	999	999	999	999	5	28	1	27	105	2	1	0	0	"0"	"0"	94.91516	5	1	1	0	350	400	325	"-"	29	1.0	1	3	3	2	3	-14	4	3	11		7	2	10
20505	2101	205	2	5	5	1	0.0	1.375	1	25	3	9	1	5	2	3	0	1	2	0	0	3	5	4	5	6	7	0	0	3	6	5	3	26	23	99	99	0	0	0	0	29	1	1	1	1	0	2	0	1	23	1	25	101	4	0	0	0	"0"	"0"	95.41016	5	1	2	1	300	350	275	"-"	27	1.0	1	3	3	2	3	-14	4	3	11		7	2	10
20513	99	205	2	13	5	1	0.0	3.0	1	25	3	9	1	5	3	4	1	1	2	0	0	3	4	4	5	5	6	0	0	4	5	5	1	20	34	99	99	0	0	0	0	28	1	99	99	999	999	999	999	5	27	1	17	105	1	2	0	0	"0"	"0"	60.091805	5	5	1	0	350	400	375	"-"	15	1.0	1	3	3	2	3	-14	4	3	11		7	2	10
20611	99	206	2	11	6	1	0.0	3.125	1	25	3	9	1	6	1	3	1	2	1	0	0	3	5	4	5	6	7	0	0	3	7	5	1	25	13	2	99	1	1	0	0	12	1	99	99	999	999	999	999	5	21	1	26	105	3	2	0	0	"0"	"0"	21.472734	1	1	3	1	250	350	225	"-"	25	1.0	3	1	4	3	2	-91	1	4	-2		5	2	-15
20601	2105	206	2	1	6	1	0.0	0.0	1	25	3	9	1	6	3	1	0	2	2	0	0	1	4	2	3	5	6	0	0	2	5	5	1	-17	31	99	99	0	0	0	0	23	1	5	5	1	0	1	0	1	-2	1	0	101	2	3	0	0	"0"	"0"	1.1736875	1	5	4	1	200	350	325	"-"	26	1.0	3	1	4	3	2	-91	1	4	-2		5	2	-15
20613	2104	206	2	13	6	1	0.0	3.125	1	25	3	9	1	6	3	4	0	1	2	0	0	3	4	4	5	5	6	0	0	4	5	5	2	18	34	99	99	0	0	0	0	29	1	4	4	5	0	1	0	5	6	1	27	105	1	2	0	0	"0"	"0"	60.091805	5	5	2	1	300	350	325	"-"	27	1.0	3	1	4	3	2	-91	1	4	-2		5	2	-15
20614	99	206	2	14	6	1	0.0	3.125	1	25	3	9	1	6	1	3	1	2	2	0	0	3	5	4	5	6	7	0	0	3	5	5	1	22	13	2	99	1	2	0	0	19	1	99	99	999	999	999	999	5	25	1	22	105	3	2	0	0	"0"	"0"	48.260433	1	1	3	1	250	350	225	"-"	28	1.0	3	1	4	3	2	-91	1	4	-2		5	2	-15
20608	99	206	2	8	6	1	0.0	1.625	1	25	3	9	1	6	1	2	1	2	1	0	0	1	3	2	3	4	5	0	0	3	3	5	2	13	12	4	99	5	1	0	0	11	1	99	99	999	999	999	999	5	22	1	24	105	3	1	0	0	"0"	"0"	81.911194	5	1	3	3	250	250	225	"-"	28	1.0	3	1	4	3	2	-91	1	4	-2		5	2	-15
20609	99	206	2	9	6	1	1.5	3.125	1	25	3	9	1	6	4	1	1	2	1	0	0	3	5	4	5	6	7	0	0	4	7	5	2	18	41	3	99	5	1			-28	1	99	99	999	999	999	999	1	24	5	21	99	3	0	0	0	"0"	"0"	32.851025	1	1	2	1	300	350	300	"1.5"	28	1.0	3	1	4	3	2	-91	1	4	-2		5	2	-15
20606	99	206	2	6	6	1	0.0	1.625	1	25	3	9	1	6	4	1	1	2	2	0	0	1	3	2	3	4	5	0	0	3	5	5	1	12	41	3	99	5	1	0	0	-40	1	99	99	999	999	999	999	5	22	1	21	105	2	2	0	0	"0"	"0"	17.124975	1	1	3	1	250	350	225	"-"	27	1.0	3	1	4	3	2	-91	1	4	-2		5	2	-15
20610	2102	206	2	10	6	1	0.0	3.125	1	25	3	9	1	6	3	3	0	1	2	0	0	3	3	4	5	4	5	0	0	4	5	5	2	13	33	99	99	0	0	0	0	26	1	2	2	5	0	4	0	5	-12	5	7	99	2	1	0	0	"0"	"0"	94.91516	5	1	2	1	300	350	300	"-"	28	1.0	3	1	4	3	2	-91	1	4	-2		5	2	-15
20607	99	206	2	7	6	1	0.0	1.625	1	25	3	9	1	6	4	4	1	1	1	0	0	1	3	2	3	4	5	0	0	1	3	5	1	15	44	99	99	0	0	0	0	28	1	99	99	999	999	999	999	5	26	1	27	105	0	4	0	0	"0"	"0"	17.523638	1	5	5	3	150	250	225	"-"	26	1.0	3	1	4	3	2	-91	1	4	-2		5	2	-15
20602	2104	206	2	2	6	1	0.0	0.0	1	25	3	9	1	6	3	4	0	1	1	0	0	2	3	3	4	4	5	0	0	2	5	5	1	-6	34	99	99	0	0			27	1	4	4	5	0	1	0	5	-10	1	-7	105	0	2	0	0	"0"	"0"	69.540726	5	5	4	1	200	350	325	"-"	28	1.0	3	1	4	3	2	-91	1	4	-2		5	2	-15
20615	99	206	2	15	6	1	0.0	3.125	1	25	3	9	1	6	1	1	1	2	1	0	0	1	5	2	3	6	7	0	0	1	6	5	1	24	11	5	7	5	2	5	2	11	1	99	99	999	999	999	999	5	27	1	26	105	2	2	0	0	"0"	"0"	95.72512	5	5	5	0	150	400	375	"-"	26	1.0	3	1	4	3	2	-91	1	4	-2		5	2	-15
20604	99	206	2	4	6	1	0.0	1.625	1	25	3	9	1	6	1	1	1	2	2	0	0	2	3	3	4	4	5	0	0	3	4	5	2	17	11	5	7	5	1	5	1	3	1	99	99	999	999	999	999	5	19	5	26	99	2	1	0	0	"0"	"0"	3.4278374	1	1	3	2	250	300	250	"-"	27	1.0	3	1	4	3	2	-91	1	4	-2		5	2	-15
20603	2103	206	2	3	6	1	1.625	1.625	1	25	3	9	1	6	2	1	0	2	1	0	0	2	5	3	4	6	7	0	0	4	7	5	1	17	21	99	99	0	0	0	0	26	1	3	3	1	0	1	0	5	5	1	27	105	1	2	0	0	"0"	"0"	91.404854	5	5	2	1	300	350	325	"1.625"	28	1.0	3	1	4	3	2	-91	1	4	-2		5	2	-15
20612	2102	206	2	12	6	1	0.0	3.125	1	25	3	9	1	6	2	3	0	2	1	0	0	3	4	4	5	5	6	0	0	4	4	5	2	9	23	99	99	0	0	0	0	24	1	2	2	1	0	2	0	5	3	1	22	105	2	2	0	0	"0"	"0"	19.28582	1	1	2	2	300	300	275	"-"	29	1.0	3	1	4	3	2	-91	1	4	-2		5	2	-15
20605	2102	206	2	5	6	1	0.0	1.625	1	25	3	9	1	6	2	3	0	1	2	0	0	3	5	4	5	6	7	0	0	3	6	5	1	20	23	99	99	0	0	0	0	29	1	2	2	5	0	1	0	5	-10	5	18	99	4	0	0	0	"0"	"0"	95.41016	5	1	3	0	250	400	250	"-"	12	1.0	3	1	4	3	2	-91	1	4	-2		5	2	-15
20708	2101	207	2	8	7	1	0.0	2.0	1	25	3	9	1	7	1	2	0	2	1	0	0	1	3	2	3	4	5	0	0	3	3	5	1	24	12	99	99	0	0	0	0	28	1	1	1	5	0	1	0	5	23	5	23	99	3	1	0	0	"0"	"0"	81.911194	5	1	4	4	200	200	200	"-"	28	1.0	3	2	3	3	3	-51	2	1	1		3	2	13
20705	2103	207	2	5	7	1	0.0	2.0	1	25	3	9	1	7	2	3	0	1	2	0	0	3	5	4	5	6	7	0	0	3	6	5	1	24	23	99	99	0	0	0	0	30	0	3	3	1	1	1	2	5	22	5	25	99	4	0	0	0	"0"	"0"	95.41016	5	1	4	1	200	350	200	"-"	29	1.0	3	2	3	3	3	-51	2	1	1		3	2	13
20704	2106	207	2	4	7	1	0.0	2.0	1	25	3	9	1	7	1	1	0	2	2	0	0	2	3	3	4	4	5	0	0	3	4	5	1	26	11	99	99	0	0	0	0	29	0	6	6	5	5	1	1	5	22	5	27	99	2	1	0	0	"0"	"0"	3.4278374	1	1	4	3	200	250	200	"-"	26	1.0	3	2	3	3	3	-51	2	1	1		3	2	13
20713	99	207	2	13	7	1	0.0	3.25	1	25	3	9	1	7	3	4	1	1	2	0	0	3	4	4	5	5	6	0	0	4	5	5	1	25	34	1	99	5	1	0	0	23	1	99	99	999	999	999	999	5	27	5	12	99	1	2	0	0	"0"	"0"	60.091805	5	5	3	2	250	300	300	"-"	28	1.0	3	2	3	3	3	-51	2	1	1		3	2	13
20703	2101	207	2	3	7	1	2.0	2.0	1	25	3	9	1	7	2	1	0	2	1	0	0	2	5	3	4	6	7	0	0	4	7	5	1	21	21	99	99	0	0	0	0	26	0	1	1	1	5	1	1	5	18	5	24	99	1	2	0	0	"0"	"0"	91.404854	5	5	3	0	250	400	400	"2"	26	1.0	3	2	3	3	3	-51	2	1	1		3	2	13
20702	99	207	2	2	7	1	0.0	0.0	1	25	3	9	1	7	3	4	1	1	1	0	0	2	3	3	4	4	5	0	0	2	5	5	1	20	34	1	99	5	1			18	1	99	99	999	999	999	999	5	20	5	27	99	0	2	0	0	"0"	"0"	69.540726	5	5	5	2	150	300	300	"-"	24	1.0	3	2	3	3	3	-51	2	1	1		3	2	13
20712	2103	207	2	12	7	1	0.0	3.25	1	25	3	9	1	7	2	3	0	2	1	0	0	3	4	4	5	5	6	0	0	4	4	5	1	25	23	99	99	0	0	0	0	28	0	3	3	1	1	1	1	5	25	5	16	99	2	2	0	0	"0"	"0"	19.28582	1	1	3	3	250	250	250	"-"	28	1.0	3	2	3	3	3	-51	2	1	1		3	2	13
20709	99	207	2	9	7	1	1.25	3.25	1	25	3	9	1	7	4	1	1	2	1	0	0	3	5	4	5	6	7	0	0	4	7	5	1	22	41	99	99	0	0			28	1	99	99	999	999	999	999	5	27	5	27	99	3	0	0	0	"0"	"0"	32.851025	1	1	3	0	250	400	250	"1.25"	27	1.0	3	2	3	3	3	-51	2	1	1		3	2	13
20710	99	207	2	10	7	1	0.0	3.25	1	25	3	9	1	7	3	3	1	1	2	0	0	3	3	4	5	4	5	0	0	4	5	5	1	26	33	3	99	5	1	0	0	24	1	99	99	999	999	999	999	5	23	5	27	99	2	1	0	0	"0"	"0"	94.91516	5	1	3	2	250	300	250	"-"	28	1.0	3	2	3	3	3	-51	2	1	1		3	2	13
20714	2103	207	2	14	7	1	0.0	3.25	1	25	3	9	1	7	1	3	0	2	2	0	0	3	5	4	5	6	7	0	0	3	5	5	1	22	13	99	99	0	0	0	0	29	1	3	3	1	0	1	0	5	23	5	27	99	3	2	0	0	"0"	"0"	48.260433	1	1	4	2	200	300	200	"-"	29	1.0	3	2	3	3	3	-51	2	1	1		3	2	13
20707	99	207	2	7	7	1	0.0	2.0	1	25	3	9	1	7	4	4	1	1	1	0	0	1	3	2	3	4	5	0	0	1	3	5	1	25	44	1	99	5	1	0	0	25	1	99	99	999	999	999	999	5	26	5	19	99	0	4	0	0	"0"	"0"	17.523638	1	5	6	4	100	200	200	"-"	23	1.0	3	2	3	3	3	-51	2	1	1		3	2	13
20706	99	207	2	6	7	1	0.0	2.0	1	25	3	9	1	7	4	1	1	2	2	0	0	1	3	2	3	4	5	0	0	3	5	5	1	25	41	99	99	0	0	0	0	29	1	99	99	999	999	999	999	5	26	5	15	99	2	2	0	0	"0"	"0"	17.124975	1	1	4	2	200	300	200	"-"	27	1.0	3	2	3	3	3	-51	2	1	1		3	2	13
20715	2106	207	2	15	7	1	0.0	3.25	1	25	3	9	1	7	1	1	0	2	1	0	0	1	5	2	3	6	7	0	0	1	6	5	1	26	11	99	99	0	0	0	0	30	0	6	6	5	5	2	2	5	24	5	28	99	2	2	0	0	"0"	"0"	95.72512	5	5	6	1	100	350	350	"-"	28	1.0	3	2	3	3	3	-51	2	1	1		3	2	13
20711	2103	207	2	11	7	1	0.0	3.25	1	25	3	9	1	7	1	3	0	2	1	0	0	3	5	4	5	6	7	0	0	3	7	5	1	26	13	99	99	0	0	0	0	26	1	3	3	1	0	1	0	5	25	5	26	99	3	2	0	0	"0"	"0"	21.472734	1	1	4	0	200	400	200	"-"	26	1.0	3	2	3	3	3	-51	2	1	1		3	2	13
20701	99	207	2	1	7	1	0.0	0.0	1	25	3	9	1	7	3	1	1	2	2	0	0	1	4	2	3	5	6	0	0	2	5	5	1	2	31	99	99	0	0	0	0	25	1	99	99	999	999	999	999	5	15	1	14	105	2	3	0	0	"0"	"0"	1.1736875	1	5	5	2	150	300	275	"-"	27	1.0	3	2	3	3	3	-51	2	1	1		3	2	13
20811	2204	208	2	11	8	1	0.0	3.0	1	25	3	9	2	1	3	2	0	2	2	96	90	3	5	4	5	6	7	94	60	5	6	5	1	13	32	99	99	0	0	0	0	28	1	4	11	1	0	1	0	5	21	1	27	205	0	0	2	2	"0"	"0"	46.6817	1	1	4	5	200	150	175	"-"	15	1.0	2	3	5	2	2	-31	1	5	3		4	2	14
20807	2204	208	2	7	8	1	0.0	1.875	1	25	3	9	2	1	4	1	0	2	1	28	85	1	5	2	3	6	7	23	95	1	7	1	1	9	41	99	99	0	0	0	0	29	1	4	11	5	0	2	0	1	22	1	15	201	0	0	4	0	"0"	"0"	3.8188934	1	1	0	6	400	100	375	"-"	28	1.0	2	3	5	2	2	-31	1	5	3		4	2	14
20801	99	208	2	1	8	1	0.0	0.0	1	25	3	9	2	1	1	1	1	1	2	70	37	3	3	4	5	4	5	38	52	4	4	1	2	17	11	2	99	1	2	0	0	17	1	99	106	999	999	999	999	1	23	1	20	201	0	0	2	2	"0"	"0"	11.317064	1	1	3	3	250	250	225	"-"	23	1.0	2	3	5	2	2	-31	1	5	3		4	2	14
20804	99	208	2	4	8	1	0.0	1.875	1	25	3	9	2	1	1	1	1	1	1	48	58	2	4	3	4	5	6	13	84	2	6	1	2	22	11	2	99	1	1	0	0	19	1	99	106	999	999	999	999	1	26	1	26	201	0	0	5	1	"0"	"0"	90.86862	5	1	1	5	350	150	325	"-"	25	1.0	2	3	5	2	2	-31	1	5	3		4	2	14
20810	99	208	2	10	8	1	0.0	3.0	1	25	3	9	2	1	2	2	1	1	1	58	17	2	3	3	4	4	5	100	7	4	3	1	1	24	22	6	99	1	1	0	0	18	1	99	106	999	999	999	999	1	27	1	23	201	0	0	3	1	"0"	"0"	31.838556	1	1	3	2	250	300	225	"-"	14	1.0	2	3	5	2	2	-31	1	5	3		4	2	14
20812	2205	208	2	12	8	1	0.0	3.0	1	25	3	9	2	1	3	3	0	2	1	68	70	3	5	4	5	6	7	15	46	3	6	5	1	26	33	99	99	0	0	0	0	29	1	5	12	1	0	3	0	5	29	1	27	205	0	0	3	1	"0"	"0"	16.256176	1	1	2	5	300	150	275	"-"	14	1.0	2	3	5	2	2	-31	1	5	3		4	2	14
20815	2204	208	2	15	8	1	0.0	3.0	1	25	3	9	2	1	3	2	0	2	2	30	2	1	3	2	3	4	5	26	76	1	5	1	1	26	32	99	99	0	0	0	0	29	1	4	11	5	0	1	0	1	20	1	27	201	0	0	3	2	"0"	"0"	1.8168234	1	1	0	4	400	200	375	"-"	29	1.0	2	3	5	2	2	-31	1	5	3		4	2	14
20808	2205	208	2	8	8	1	0.0	1.875	1	25	3	9	2	1	3	3	0	1	2	34	6	1	3	2	3	4	5	92	45	3	4	1	1	22	33	99	99	0	0	0	0	29	1	5	12	5	0	3	0	1	22	1	23	201	0	0	4	1	"0"	"0"	61.51329	5	1	2	3	300	250	275	"-"	19	1.0	2	3	5	2	2	-31	1	5	3		4	2	14
20805	99	208	2	5	8	1	0.0	1.875	1	25	3	9	2	1	2	2	1	2	1	100	79	3	5	4	5	6	7	1	21	3	5	1	1	20	22	6	99	1	2	0	0	25	1	99	106	999	999	999	999	1	26	5	19	99	0	0	4	0	"0"	"0"	31.44015	1	1	2	4	300	200	300	"-"	14	1.0	2	3	5	2	2	-31	1	5	3		4	2	14
20803	2204	208	2	3	8	1	1.875	1.875	1	25	3	9	2	1	4	1	0	1	1	37	29	1	3	2	3	4	5	12	41	1	4	5	1	14	41	99	99	0	0	0	0	27	1	4	11	5	0	1	0	5	23	1	22	205	0	0	3	3	"0"	"0"	20.679792	1	1	0	3	400	250	375	"1.875"	18	1.0	2	3	5	2	2	-31	1	5	3		4	2	14
20813	99	208	2	13	8	1	0.0	3.0	1	25	3	9	2	1	1	1	1	2	1	66	18	3	3	4	5	4	5	28	43	3	4	5	2	14	11	2	99	5	2	0	0	16	1	99	106	999	999	999	999	5	25	1	22	205	0	0	1	3	"0"	"0"	30.609121	1	5	2	3	300	250	225	"-"	23	1.0	2	3	5	2	2	-31	1	5	3		4	2	14
20806	99	208	2	6	8	1	0.0	1.875	1	25	3	9	2	1	2	3	1	1	2	46	65	2	5	3	4	6	7	61	75	3	7	1	1	23	23	5	99	1	1	0	0	24	1	99	106	999	999	999	999	1	27	1	26	201	0	0	5	0	"0"	"0"	25.334955	1	1	2	6	300	100	275	"-"	26	1.0	2	3	5	2	2	-31	1	5	3		4	2	14
20814	2204	208	2	14	8	1	0.0	3.0	1	25	3	9	2	1	3	2	0	2	1	51	26	2	3	3	4	4	5	50	88	3	5	1	1	24	32	99	99	0	0	0	0	29	1	4	11	5	0	2	0	1	25	1	28	201	0	0	2	2	"0"	"0"	86.19414	5	5	2	4	300	200	175	"-"	27	1.0	2	3	5	2	2	-31	1	5	3		4	2	14
20809	2202	208	2	9	8	1	1.125	3.0	1	25	3	9	2	1	3	1	0	2	1	70	86	3	5	4	5	6	7	61	13	4	5	1	1	15	31	99	99	0	0			28	1	2	9	1	0	1	0	1	26	1	27	201	0	0	4	1	"0"	"0"	91.73632	5	1	3	4	250	200	225	"1.125"	24	1.0	2	3	5	2	2	-31	1	5	3		4	2	14
20802	2207	208	2	2	8	1	0.0	0.0	1	25	3	9	2	1	4	4	0	2	2	69	98	3	5	4	5	6	7	98	59	5	6	1	3	9	44	99	99	0	0			27	1	7	14	5	0	1	0	1	8	5	22	99	0	0	3	1	"0"	"0"	22.977211	1	1	4	5	200	150	200	"-"	18	1.0	2	3	5	2	2	-31	1	5	3		4	2	14
20905	99	209	2	5	9	1	0.0	1.625	1	25	3	9	2	2	2	2	1	2	1	0	0	3	5	4	5	6	7	0	0	3	5	1	2	25	22	4	7	1	1	1	1	12	1	99	106	999	999	999	999	1	26	5	26	99	0	0	4	0	"0"	"0"	31.44015	1	1	1	3	350	250	350	"-"	27	1.0	3	2	5	2	3	-28	4	3	10		4	1	22
20915	99	209	2	15	9	1	0.0	3.125	1	25	3	9	2	2	3	2	1	2	2	0	0	1	3	2	3	4	5	0	0	1	5	1	2	25	32	99	99	0	0	0	0	29	1	99	106	999	999	999	999	1	27	5	24	99	0	0	3	2	"0"	"0"	1.8168234	1	1	1	3	350	250	350	"-"	29	1.0	3	2	5	2	3	-28	4	3	10		4	1	22
20912	99	209	2	12	9	1	0.0	3.125	1	25	3	9	2	2	3	3	1	2	1	0	0	3	5	4	5	6	7	0	0	3	6	1	3	23	33	6	99	1	1	0	0	26	1	99	106	999	999	999	999	1	27	5	29	99	0	0	3	1	"0"	"0"	16.256176	1	1	1	4	350	200	350	"-"	28	1.0	3	2	5	2	3	-28	4	3	10		4	1	22
20907	2205	209	2	7	9	1	0.0	1.625	1	25	3	9	2	2	4	1	0	2	1	0	0	1	5	2	3	6	7	0	0	1	7	1	2	25	41	99	99	0	0	0	0	29	1	5	12	1	0	3	0	1	25	5	27	99	0	0	4	0	"0"	"0"	3.8188934	1	1	1	5	350	150	350	"-"	27	1.0	3	2	5	2	3	-28	4	3	10		4	1	22
20909	99	209	2	9	9	1	1.5	3.125	1	25	3	9	2	2	3	1	1	2	1	0	0	3	5	4	5	6	7	0	0	4	5	1	2	19	31	1	99	1	1			24	1	99	106	999	999	999	999	1	28	5	27	99	0	0	4	1	"0"	"0"	91.73632	5	1	2	3	300	250	300	"1.5"	28	1.0	3	2	5	2	3	-28	4	3	10		4	1	22
20908	99	209	2	8	9	1	0.0	1.625	1	25	3	9	2	2	3	3	1	1	2	0	0	1	3	2	3	4	5	0	0	3	4	1	1	23	33	6	99	1	1	0	0	23	1	99	106	999	999	999	999	1	26	5	21	99	0	0	4	1	"0"	"0"	61.51329	5	1	1	2	350	300	350	"-"	0	1.0	3	2	5	2	3	-28	4	3	10		4	1	22
20902	2204	209	2	2	9	1	0.0	0.0	1	25	3	9	2	2	4	4	0	2	2	0	0	3	5	4	5	6	7	0	0	5	6	1	3	22	44	99	99	0	0			29	1	4	11	1	0	1	0	1	25	5	26	99	0	0	3	1	"0"	"0"	22.977211	1	1	3	4	250	200	250	"-"	13	1.0	3	2	5	2	3	-28	4	3	10		4	1	22
20913	2201	209	2	13	9	1	0.0	3.125	1	25	3	9	2	2	1	1	0	2	1	0	0	3	3	4	5	4	5	0	0	3	4	1	2	22	11	99	99	0	0	0	0	21	1	1	8	5	0	2	0	5	23	5	26	99	0	0	1	3	"0"	"0"	30.609121	1	5	1	2	350	300	300	"-"	27	1.0	3	2	5	2	3	-28	4	3	10		4	1	22
