session	period	subject	group	enforce	info	enforce11	timer16	offer1	offer2	agree1	agree2	war1	war2	peace	confirm	state	player	risk	war
3	1	1	1	1	1	0	0	5	5	0	0	0	0	1	1	1	3001.0	2.0	0.0
3	1	2	1	1	1	0	0	5	5	1	1	0	0	1	0	2	3002.0	5.0	0.0
3	1	3	2	1	1	0	0	3	-1	0	0	1	0	0	0	1	3003.0	4.0	1.0
3	1	4	2	1	1	0	0	3	-1	2	0	1	0	0	0	2	3004.0	5.0	1.0
3	1	5	3	1	1	0	0	3	3	1	1	0	0	1	0	2	3005.0	5.0	0.0
3	1	6	3	1	1	0	0	3	3	0	0	0	0	1	1	1	3006.0	4.0	0.0
3	1	7	4	0	1	0	0	5	3	0	0	0	0	1	0	1	3007.0	5.0	0.0
3	1	8	5	0	1	0	0	3	-1	0	0	1	0	0	0	1	3008.0	5.0	1.0
3	1	9	5	0	1	0	0	3	-1	2	0	1	0	0	0	2	3009.0	3.0	1.0
3	1	10	6	0	1	0	0	4	2	1	1	0	0	1	0	2	3010.0	5.0	0.0
3	1	11	6	0	1	0	0	4	2	0	0	0	0	1	0	1	3011.0	5.0	0.0
3	1	12	4	0	1	0	0	5	3	1	1	0	0	1	0	2	3012.0	4.0	0.0
3	1	13	7	1	0	0	0	3	-1	2	0	1	0	0	0	2	3013.0	7.0	1.0
3	1	14	7	1	0	0	0	3	-1	0	0	1	0	0	0	1	3014.0	5.0	1.0
3	1	15	8	1	0	0	0	3	-1	0	0	1	0	0	0	1	3015.0	5.0	1.0
3	1	16	8	1	0	0	0	3	-1	2	0	1	0	0	0	2	3016.0	5.0	1.0
3	1	17	9	1	0	0	0	5	-1	0	0	1	0	0	0	1	3017.0	2.0	1.0
3	1	18	9	1	0	0	0	5	-1	2	0	1	0	0	0	2	3018.0	5.0	1.0
3	1	19	10	0	0	0	0	5	-1	0	0	1	0	0	0	1	3019.0	8.0	1.0
3	1	20	11	0	0	0	0	5	2	1	1	0	0	1	0	2	3020.0	5.0	0.0
3	1	21	11	0	0	0	0	5	2	0	0	0	0	1	0	1	3021.0	4.0	0.0
3	1	22	12	0	0	0	0	5	2	0	0	0	0	1	0	1	3022.0	4.0	0.0
3	1	23	12	0	0	0	0	5	2	1	1	0	0	1	0	2	3023.0	5.0	0.0
3	1	24	10	0	0	0	0	5	-1	2	0	1	0	0	0	2	3024.0	11.0	1.0
3	2	1	1	1	1	0	0	3	-1	2	0	1	0	0	0	2	3001.0	2.0	1.0
3	2	2	2	1	1	0	0	4	4	0	0	0	0	1	1	1	3002.0	5.0	0.0
3	2	3	1	1	1	0	0	3	-1	0	0	1	0	0	0	1	3003.0	4.0	1.0
3	2	4	3	1	1	0	0	3	-1	2	0	1	0	0	0	2	3004.0	5.0	1.0
3	2	5	2	1	1	0	0	4	4	1	1	0	0	1	0	2	3005.0	5.0	0.0
3	2	6	3	1	1	0	0	3	-1	0	0	1	0	0	0	1	3006.0	4.0	1.0
3	2	7	4	0	1	0	0	5	-1	0	0	1	0	0	0	1	3007.0	5.0	1.0
3	2	8	5	0	1	0	0	4	0	0	0	0	1	0	0	1	3008.0	5.0	1.0
3	2	9	6	0	1	0	0	4	2	1	1	0	0	1	0	2	3009.0	3.0	0.0
3	2	10	4	0	1	0	0	5	-1	2	0	1	0	0	0	2	3010.0	5.0	1.0
3	2	11	6	0	1	0	0	4	2	0	0	0	0	1	0	1	3011.0	5.0	0.0
3	2	12	5	0	1	0	0	4	0	1	2	0	1	0	0	2	3012.0	4.0	1.0
3	2	13	7	1	0	0	0	4	4	1	1	0	0	1	0	2	3013.0	7.0	0.0
3	2	14	8	1	0	0	0	5	5	1	1	0	0	1	0	2	3014.0	5.0	0.0
3	2	15	7	1	0	0	0	4	4	0	0	0	0	1	1	1	3015.0	5.0	0.0
3	2	16	9	1	0	0	0	4	4	1	1	0	0	1	0	2	3016.0	5.0	0.0
3	2	17	8	1	0	0	0	5	5	0	0	0	0	1	1	1	3017.0	2.0	0.0
3	2	18	9	1	0	0	0	4	4	0	0	0	0	1	1	1	3018.0	5.0	0.0
3	2	19	10	0	0	0	0	4	-1	0	0	1	0	0	0	1	3019.0	8.0	1.0
3	2	20	11	0	0	0	0	6	2	0	0	0	0	1	0	1	3020.0	5.0	0.0
3	2	21	12	0	0	0	0	5	-1	0	0	1	0	0	0	1	3021.0	4.0	1.0
3	2	22	10	0	0	0	0	4	-1	2	0	1	0	0	0	2	3022.0	4.0	1.0
3	2	23	12	0	0	0	0	5	-1	2	0	1	0	0	0	2	3023.0	5.0	1.0
3	2	24	11	0	0	0	0	6	2	1	1	0	0	1	0	2	3024.0	11.0	0.0
3	3	1	1	1	1	0	0	5	5	0	0	0	0	1	1	1	3001.0	2.0	0.0
3	3	2	2	1	1	0	0	4	4	0	0	0	0	1	1	1	3002.0	5.0	0.0
3	3	3	2	1	1	0	0	4	4	1	1	0	0	1	0	2	3003.0	4.0	0.0
3	3	4	3	1	1	0	0	4	4	0	0	0	0	1	1	1	3004.0	5.0	0.0
3	3	5	3	1	1	0	0	4	4	1	1	0	0	1	0	2	3005.0	5.0	0.0
3	3	6	1	1	1	0	0	5	5	1	1	0	0	1	0	2	3006.0	4.0	0.0
3	3	7	4	0	1	0	0	4	2	1	1	0	0	1	0	2	3007.0	5.0	0.0
3	3	8	5	0	1	0	0	4	-1	0	0	1	0	0	0	1	3008.0	5.0	1.0
3	3	9	6	0	1	0	0	4	-1	2	0	1	0	0	0	2	3009.0	3.0	1.0
3	3	10	5	0	1	0	0	4	-1	2	0	1	0	0	0	2	3010.0	5.0	1.0
3	3	11	4	0	1	0	0	4	2	0	0	0	0	1	0	1	3011.0	5.0	0.0
3	3	12	6	0	1	0	0	4	-1	0	0	1	0	0	0	1	3012.0	4.0	1.0
3	3	13	7	1	0	0	0	3	-1	0	0	1	0	0	0	1	3013.0	7.0	1.0
3	3	14	8	1	0	0	0	4	4	0	0	0	0	1	1	1	3014.0	5.0	0.0
3	3	15	8	1	0	0	0	4	4	1	1	0	0	1	0	2	3015.0	5.0	0.0
3	3	16	9	1	0	0	0	5	5	1	1	0	0	1	0	2	3016.0	5.0	0.0
3	3	17	9	1	0	0	0	5	5	0	0	0	0	1	1	1	3017.0	2.0	0.0
3	3	18	7	1	0	0	0	3	-1	2	0	1	0	0	0	2	3018.0	5.0	1.0
3	3	19	10	0	0	0	0	4	-1	0	0	1	0	0	0	1	3019.0	8.0	1.0
3	3	20	11	0	0	0	0	6	2	0	0	0	0	1	0	1	3020.0	5.0	0.0
3	3	21	12	0	0	0	0	6	3	1	1	0	0	1	0	2	3021.0	4.0	0.0
3	3	22	11	0	0	0	0	6	2	1	1	0	0	1	0	2	3022.0	4.0	0.0
3	3	23	10	0	0	0	0	4	-1	2	0	1	0	0	0	2	3023.0	5.0	1.0
3	3	24	12	0	0	0	0	6	3	0	0	0	0	1	0	1	3024.0	11.0	0.0
3	4	1	1	1	1	0	0	4	4	1	1	0	0	1	0	2	3001.0	2.0	0.0
3	4	2	2	1	1	0	0	4	4	0	0	0	0	1	1	1	3002.0	5.0	0.0
3	4	3	3	1	1	0	0	4	4	1	1	0	0	1	0	2	3003.0	4.0	0.0
3	4	4	1	1	1	0	0	4	4	0	0	0	0	1	1	1	3004.0	5.0	0.0
3	4	5	3	1	1	0	0	4	4	0	0	0	0	1	1	1	3005.0	5.0	0.0
3	4	6	2	1	1	0	0	4	4	1	1	0	0	1	0	2	3006.0	4.0	0.0
3	4	7	4	0	1	0	0	4	-1	0	0	1	0	0	0	1	3007.0	5.0	1.0
3	4	8	4	0	1	0	0	4	-1	2	0	1	0	0	0	2	3008.0	5.0	1.0
3	4	9	5	0	1	0	0	7	-1	0	0	1	0	0	0	1	3009.0	3.0	1.0
3	4	10	5	0	1	0	0	7	-1	2	0	1	0	0	0	2	3010.0	5.0	1.0
3	4	11	6	0	1	0	0	4	-1	0	0	1	0	0	0	1	3011.0	5.0	1.0
3	4	12	6	0	1	0	0	4	-1	2	0	1	0	0	0	2	3012.0	4.0	1.0
3	4	13	7	1	0	0	0	5	5	1	1	0	0	1	0	2	3013.0	7.0	0.0
3	4	14	8	1	0	0	0	4	-1	0	0	1	0	0	0	1	3014.0	5.0	1.0
3	4	15	9	1	0	0	0	4	4	0	0	0	0	1	1	1	3015.0	5.0	0.0
3	4	16	7	1	0	0	0	5	5	0	0	0	0	1	1	1	3016.0	5.0	0.0
3	4	17	9	1	0	0	0	4	4	1	1	0	0	1	0	2	3017.0	2.0	0.0
3	4	18	8	1	0	0	0	4	-1	2	0	1	0	0	0	2	3018.0	5.0	1.0
3	4	19	10	0	0	0	0	7	-1	2	0	1	0	0	0	2	3019.0	8.0	1.0
3	4	20	10	0	0	0	0	7	-1	0	0	1	0	0	0	1	3020.0	5.0	1.0
3	4	21	11	0	0	0	0	5	3	1	1	0	0	1	0	2	3021.0	4.0	0.0
3	4	22	11	0	0	0	0	5	3	0	0	0	0	1	0	1	3022.0	4.0	0.0
3	4	23	12	0	0	0	0	6	-1	2	0	1	0	0	0	2	3023.0	5.0	1.0
3	4	24	12	0	0	0	0	6	-1	0	0	1	0	0	0	1	3024.0	11.0	1.0
3	5	1	1	1	1	0	0	3	-1	2	0	1	0	0	0	2	3001.0	2.0	1.0
3	5	2	2	1	1	0	0	4	4	0	0	0	0	1	1	1	3002.0	5.0	0.0
3	5	3	3	1	1	0	0	4	4	1	1	0	0	1	0	2	3003.0	4.0	0.0
3	5	4	2	1	1	0	0	4	4	1	1	0	0	1	0	2	3004.0	5.0	0.0
3	5	5	1	1	1	0	0	3	-1	0	0	1	0	0	0	1	3005.0	5.0	1.0
3	5	6	3	1	1	0	0	4	4	0	0	0	0	1	1	1	3006.0	4.0	0.0
3	5	7	4	0	1	0	0	4	-1	0	0	1	0	0	0	1	3007.0	5.0	1.0
3	5	8	5	0	1	0	0	4	-1	0	0	1	0	0	0	1	3008.0	5.0	1.0
3	5	9	4	0	1	0	0	4	-1	2	0	1	0	0	0	2	3009.0	3.0	1.0
3	5	10	6	0	1	0	0	5	3	0	0	0	0	1	0	1	3010.0	5.0	0.0
3	5	11	5	0	1	0	0	4	-1	2	0	1	0	0	0	2	3011.0	5.0	1.0
3	5	12	6	0	1	0	0	5	3	1	1	0	0	1	0	2	3012.0	4.0	0.0
3	5	13	7	1	0	0	0	4	4	0	0	0	0	1	1	1	3013.0	7.0	0.0
3	5	14	8	1	0	0	0	5	5	1	1	0	0	1	0	2	3014.0	5.0	0.0
3	5	15	9	1	0	0	0	4	4	1	1	0	0	1	0	2	3015.0	5.0	0.0
3	5	16	8	1	0	0	0	5	5	0	0	0	0	1	1	1	3016.0	5.0	0.0
3	5	17	7	1	0	0	0	4	4	1	1	0	0	1	0	2	3017.0	2.0	0.0
3	5	18	9	1	0	0	0	4	4	0	0	0	0	1	1	1	3018.0	5.0	0.0
3	5	19	10	0	0	0	0									2	3019.0	8.0	
3	5	20	11	0	0	0	0	5	-1	0	0	1	0	0	0	1	3020.0	5.0	1.0
3	5	21	10	0	0	0	0									1	3021.0	4.0	
3	5	22	12	0	0	0	0	5	-1	0	0	1	0	0	0	1	3022.0	4.0	1.0
3	5	23	11	0	0	0	0	5	-1	2	0	1	0	0	0	2	3023.0	5.0	1.0
3	5	24	12	0	0	0	0	5	-1	2	0	1	0	0	0	2	3024.0	11.0	1.0
3	6	1	1	0	1	0	0	4	3	1	1	0	0	1	0	2	3001.0	2.0	0.0
3	6	2	2	0	1	0	0	4	-1	2	0	1	0	0	0	2	3002.0	5.0	1.0
3	6	3	3	0	1	0	0	4	-1	2	0	1	0	0	0	2	3003.0	4.0	1.0
3	6	4	2	0	1	0	0	4	-1	0	0	1	0	0	0	1	3004.0	5.0	1.0
3	6	5	1	0	1	0	0	4	3	0	0	0	0	1	0	1	3005.0	5.0	0.0
3	6	6	3	0	1	0	0	4	-1	0	0	1	0	0	0	1	3006.0	4.0	1.0
3	6	7	4	1	1	0	0	4	4	0	0	0	0	1	1	1	3007.0	5.0	0.0
3	6	8	5	1	1	0	0	4	4	1	1	0	0	1	0	2	3008.0	5.0	0.0
3	6	9	4	1	1	0	0	4	4	1	1	0	0	1	0	2	3009.0	3.0	0.0
3	6	10	6	1	1	0	0	4	4	1	1	0	0	1	0	2	3010.0	5.0	0.0
3	6	11	5	1	1	0	0	4	4	0	0	0	0	1	1	1	3011.0	5.0	0.0
3	6	12	6	1	1	0	0	4	4	0	0	0	0	1	1	1	3012.0	4.0	0.0
3	6	13	7	0	0	0	0	5	4	1	1	0	0	1	0	2	3013.0	7.0	0.0
3	6	14	8	0	0	0	0	5	-1	0	0	1	0	0	0	1	3014.0	5.0	1.0
3	6	15	9	0	0	0	0	4	3	1	1	0	0	1	0	2	3015.0	5.0	0.0
3	6	16	8	0	0	0	0	5	-1	2	0	1	0	0	0	2	3016.0	5.0	1.0
3	6	17	7	0	0	0	0	5	4	0	0	0	0	1	0	1	3017.0	2.0	0.0
3	6	18	9	0	0	0	0	4	3	0	0	0	0	1	0	1	3018.0	5.0	0.0
3	6	19	10	1	0	0	0									2	3019.0	8.0	
3	6	20	11	1	0	0	0	4	4	1	1	0	0	1	0	2	3020.0	5.0	0.0
3	6	21	10	1	0	0	0									1	3021.0	4.0	
3	6	22	12	1	0	0	0	3	-1	2	0	1	0	0	0	2	3022.0	4.0	1.0
3	6	23	11	1	0	0	0	4	4	0	0	0	0	1	1	1	3023.0	5.0	0.0
3	6	24	12	1	0	0	0	3	-1	0	0	1	0	0	0	1	3024.0	11.0	1.0
3	7	1	1	0	1	0	0	4	-1	0	0	1	0	0	0	1	3001.0	2.0	1.0
3	7	2	1	0	1	0	0	4	-1	2	0	1	0	0	0	2	3002.0	5.0	1.0
3	7	3	2	0	1	0	0	5	-1	0	0	1	0	0	0	1	3003.0	4.0	1.0
3	7	4	2	0	1	0	0	5	-1	2	0	1	0	0	0	2	3004.0	5.0	1.0
3	7	5	3	0	1	0	0	4	-1	0	0	1	0	0	0	1	3005.0	5.0	1.0
3	7	6	3	0	1	0	0	4	-1	2	0	1	0	0	0	2	3006.0	4.0	1.0
3	7	7	4	1	1	0	0	4	4	1	1	0	0	1	0	2	3007.0	5.0	0.0
3	7	8	5	1	1	0	0	4	4	1	1	0	0	1	0	2	3008.0	5.0	0.0
3	7	9	5	1	1	0	0	4	4	0	0	0	0	1	1	1	3009.0	3.0	0.0
3	7	10	6	1	1	0	0	4	4	0	0	0	0	1	1	1	3010.0	5.0	0.0
3	7	11	6	1	1	0	0	4	4	1	1	0	0	1	0	2	3011.0	5.0	0.0
3	7	12	4	1	1	0	0	4	4	0	0	0	0	1	1	1	3012.0	4.0	0.0
3	7	13	7	0	0	0	0	5	4	0	0	0	0	1	0	1	3013.0	7.0	0.0
3	7	14	7	0	0	0	0	5	4	1	1	0	0	1	0	2	3014.0	5.0	0.0
3	7	15	8	0	0	0	0	5	-1	0	0	1	0	0	0	1	3015.0	5.0	1.0
3	7	16	8	0	0	0	0	5	-1	2	0	1	0	0	0	2	3016.0	5.0	1.0
3	7	17	9	0	0	0	0	4	-1	0	0	1	0	0	0	1	3017.0	2.0	1.0
3	7	18	9	0	0	0	0	4	-1	2	0	1	0	0	0	2	3018.0	5.0	1.0
3	7	19	10	1	0	0	0	4	4	0	0	0	0	1	1	1	3019.0	8.0	0.0
3	7	20	11	1	0	0	0									2	3020.0	5.0	
3	7	21	11	1	0	0	0									1	3021.0	4.0	
3	7	22	12	1	0	0	0	4	4	0	0	0	0	1	1	1	3022.0	4.0	0.0
3	7	23	12	1	0	0	0	4	4	1	1	0	0	1	0	2	3023.0	5.0	0.0
3	7	24	10	1	0	0	0	4	4	1	1	0	0	1	0	2	3024.0	11.0	0.0
3	8	1	1	0	1	0	0	5	2	1	2	0	1	0	0	2	3001.0	2.0	1.0
3	8	2	2	0	1	0	0	5	2	0	0	0	1	0	0	1	3002.0	5.0	1.0
3	8	3	1	0	1	0	0	5	2	0	0	0	1	0	0	1	3003.0	4.0	1.0
3	8	4	3	0	1	0	0	4	-1	0	0	1	0	0	0	1	3004.0	5.0	1.0
3	8	5	2	0	1	0	0	5	2	1	2	0	1	0	0	2	3005.0	5.0	1.0
3	8	6	3	0	1	0	0	4	-1	2	0	1	0	0	0	2	3006.0	4.0	1.0
3	8	7	4	1	1	0	0	4	4	0	0	0	0	1	1	1	3007.0	5.0	0.0
3	8	8	5	1	1	0	0	4	4	0	0	0	0	1	1	1	3008.0	5.0	0.0
3	8	9	6	1	1	0	0	4	4	1	1	0	0	1	0	2	3009.0	3.0	0.0
3	8	10	4	1	1	0	0	4	4	1	1	0	0	1	0	2	3010.0	5.0	0.0
3	8	11	6	1	1	0	0	4	4	0	0	0	0	1	1	1	3011.0	5.0	0.0
3	8	12	5	1	1	0	0	4	4	1	1	0	0	1	0	2	3012.0	4.0	0.0
3	8	13	7	0	0	0	0	5	3	0	0	0	0	1	0	1	3013.0	7.0	0.0
3	8	14	8	0	0	0	0	4	4	1	1	0	0	1	0	2	3014.0	5.0	0.0
3	8	15	7	0	0	0	0	5	3	1	1	0	0	1	0	2	3015.0	5.0	0.0
3	8	16	9	0	0	0	0	4	-1	2	0	1	0	0	0	2	3016.0	5.0	1.0
3	8	17	8	0	0	0	0	4	4	0	0	0	0	1	0	1	3017.0	2.0	0.0
3	8	18	9	0	0	0	0	4	-1	0	0	1	0	0	0	1	3018.0	5.0	1.0
3	8	19	10	1	0	0	0	4	4	0	0	0	0	1	1	1	3019.0	8.0	0.0
3	8	20	11	1	0	0	0	4	4	1	1	0	0	1	0	2	3020.0	5.0	0.0
3	8	21	12	1	0	0	0	4	4	1	1	0	0	1	0	2	3021.0	4.0	0.0
3	8	22	10	1	0	0	0	4	4	1	1	0	0	1	0	2	3022.0	4.0	0.0
3	8	23	12	1	0	0	0	4	4	0	0	0	0	1	1	1	3023.0	5.0	0.0
3	8	24	11	1	0	0	0	4	4	0	0	0	0	1	1	1	3024.0	11.0	0.0
3	9	1	1	0	1	0	0	4	-1	0	0	1	0	0	0	1	3001.0	2.0	1.0
3	9	2	2	0	1	0	0	4	3	0	0	0	0	1	0	1	3002.0	5.0	0.0
3	9	3	2	0	1	0	0	4	3	1	1	0	0	1	0	2	3003.0	4.0	0.0
3	9	4	3	0	1	0	0	4	-1	2	0	1	0	0	0	2	3004.0	5.0	1.0
3	9	5	3	0	1	0	0	4	-1	0	0	1	0	0	0	1	3005.0	5.0	1.0
3	9	6	1	0	1	0	0	4	-1	2	0	1	0	0	0	2	3006.0	4.0	1.0
3	9	7	4	1	1	0	0	4	4	0	0	0	0	1	1	1	3007.0	5.0	0.0
3	9	8	5	1	1	0	0	4	4	0	0	0	0	1	1	1	3008.0	5.0	0.0
3	9	9	6	1	1	0	0	4	4	0	0	0	0	1	1	1	3009.0	3.0	0.0
3	9	10	5	1	1	0	0	4	4	1	1	0	0	1	0	2	3010.0	5.0	0.0
3	9	11	4	1	1	0	0	4	4	1	1	0	0	1	0	2	3011.0	5.0	0.0
3	9	12	6	1	1	0	0	4	4	1	1	0	0	1	0	2	3012.0	4.0	0.0
3	9	13	7	0	0	0	0	4	-1	2	0	1	0	0	0	2	3013.0	7.0	1.0
3	9	14	8	0	0	0	0	6	-1	0	0	1	0	0	0	1	3014.0	5.0	1.0
3	9	15	8	0	0	0	0	6	-1	2	0	1	0	0	0	2	3015.0	5.0	1.0
3	9	16	9	0	0	0	0	7	4	0	0	0	0	1	0	1	3016.0	5.0	0.0
3	9	17	9	0	0	0	0	7	4	1	1	0	0	1	0	2	3017.0	2.0	0.0
3	9	18	7	0	0	0	0	4	-1	0	0	1	0	0	0	1	3018.0	5.0	1.0
3	9	19	10	1	0	0	0	4	4	0	0	0	0	1	1	1	3019.0	8.0	0.0
3	9	20	11	1	0	0	0	4	4	0	0	0	0	1	1	1	3020.0	5.0	0.0
3	9	21	12	1	0	0	0	4	4	1	1	0	0	1	0	2	3021.0	4.0	0.0
3	9	22	11	1	0	0	0	4	4	1	1	0	0	1	0	2	3022.0	4.0	0.0
3	9	23	10	1	0	0	0	4	4	1	1	0	0	1	0	2	3023.0	5.0	0.0
3	9	24	12	1	0	0	0	4	4	0	0	0	0	1	1	1	3024.0	11.0	0.0
3	10	1	1	0	1	0	0	4	3	1	1	0	0	1	0	2	3001.0	2.0	0.0
3	10	2	2	0	1	0	0	6	-1	2	0	1	0	0	0	2	3002.0	5.0	1.0
3	10	3	3	0	1	0	0	5	-1	2	0	1	0	0	0	2	3003.0	4.0	1.0
3	10	4	1	0	1	0	0	4	3	0	0	0	0	1	0	1	3004.0	5.0	0.0
3	10	5	3	0	1	0	0	5	-1	0	0	1	0	0	0	1	3005.0	5.0	1.0
3	10	6	2	0	1	0	0	6	-1	0	0	1	0	0	0	1	3006.0	4.0	1.0
3	10	7	4	1	1	0	0	4	4	0	0	0	0	1	1	1	3007.0	5.0	0.0
3	10	8	4	1	1	0	0	4	4	1	1	0	0	1	0	2	3008.0	5.0	0.0
3	10	9	5	1	1	0	0	4	4	1	1	0	0	1	0	2	3009.0	3.0	0.0
3	10	10	5	1	1	0	0	4	4	0	0	0	0	1	1	1	3010.0	5.0	0.0
3	10	11	6	1	1	0	0	4	4	1	1	0	0	1	0	2	3011.0	5.0	0.0
3	10	12	6	1	1	0	0	4	4	0	0	0	0	1	1	1	3012.0	4.0	0.0
3	10	13	7	0	0	0	0	7	4	1	1	0	0	1	0	2	3013.0	7.0	0.0
3	10	14	8	0	0	0	0	5	3	0	0	0	0	1	0	1	3014.0	5.0	0.0
3	10	15	9	0	0	0	0	5	3	0	0	0	0	1	0	1	3015.0	5.0	0.0
3	10	16	7	0	0	0	0	7	4	0	0	0	0	1	0	1	3016.0	5.0	0.0
3	10	17	9	0	0	0	0	5	3	1	1	0	0	1	0	2	3017.0	2.0	0.0
3	10	18	8	0	0	0	0	5	3	1	1	0	0	1	0	2	3018.0	5.0	0.0
3	10	19	10	1	0	0	0	4	4	0	0	0	0	1	1	1	3019.0	8.0	0.0
3	10	20	10	1	0	0	0	4	4	1	1	0	0	1	0	2	3020.0	5.0	0.0
3	10	21	11	1	0	0	0	4	4	1	1	0	0	1	0	2	3021.0	4.0	0.0
3	10	22	11	1	0	0	0	4	4	0	0	0	0	1	1	1	3022.0	4.0	0.0
3	10	23	12	1	0	0	0	4	4	0	0	0	0	1	1	1	3023.0	5.0	0.0
3	10	24	12	1	0	0	0	4	4	1	1	0	0	1	0	2	3024.0	11.0	0.0
3	11	1	3	0	0	1	0	4	4	1	1	0	0	1	0	2	3001.0	2.0	0.0
3	11	2	12	0	0	0	0	4	-1	0	0	1	0	0	0	1	3002.0	5.0	1.0
3	11	3	2	0	0	1	0	4	-1	2	0	1	0	0	0	2	3003.0	4.0	1.0
3	11	4	7	0	0	0	0	4	3	0	0	0	0	1	0	1	3004.0	5.0	0.0
3	11	5	9	0	0	0	0	5	-1	2	0	1	0	0	0	2	3005.0	5.0	1.0
3	11	6	6	0	0	1	0	4	4	1	1	0	0	1	0	2	3006.0	4.0	0.0
3	11	7	5	0	0	1	0	4	4	1	1	0	0	1	0	2	3007.0	5.0	0.0
3	11	8	4	0	0	1	0	5	5	1	1	0	0	1	0	2	3008.0	5.0	0.0
3	11	9	5	0	0	1	0	4	4	0	0	0	0	1	1	1	3009.0	3.0	0.0
3	11	10	3	0	0	1	0	4	4	0	0	0	0	1	1	1	3010.0	5.0	0.0
3	11	11	11	0	0	0	0	5	2	0	0	0	0	1	0	1	3011.0	5.0	0.0
3	11	12	7	0	0	0	0	4	3	1	1	0	0	1	0	2	3012.0	4.0	0.0
3	11	13	9	0	0	0	0	5	-1	0	0	1	0	0	0	1	3013.0	7.0	1.0
3	11	14	10	0	0	0	0	5	-1	0	0	1	0	0	0	1	3014.0	5.0	1.0
3	11	15	10	0	0	0	0	5	-1	2	0	1	0	0	0	2	3015.0	5.0	1.0
3	11	16	4	0	0	1	0	5	5	0	0	0	0	1	1	1	3016.0	5.0	0.0
3	11	17	6	0	0	1	0	4	4	0	0	0	0	1	1	1	3017.0	2.0	0.0
3	11	18	12	0	0	0	0	4	-1	2	0	1	0	0	0	2	3018.0	5.0	1.0
3	11	19	11	0	0	0	0	5	2	1	1	0	0	1	0	2	3019.0	8.0	0.0
3	11	20	8	0	0	0	0	5	-1	2	0	1	0	0	0	2	3020.0	5.0	1.0
3	11	21	2	0	0	1	0	4	-1	0	0	1	0	0	0	1	3021.0	4.0	1.0
3	11	22	1	0	0	1	0	4	4	1	1	0	0	1	0	2	3022.0	4.0	0.0
3	11	23	8	0	0	0	0	5	-1	0	0	1	0	0	0	1	3023.0	5.0	1.0
3	11	24	1	0	0	1	0	4	4	0	0	0	0	1	1	1	3024.0	11.0	0.0
3	12	1	3	0	0	1	0	4	4	0	0	0	0	1	1	1	3001.0	2.0	0.0
3	12	2	12	0	0	0	0	5	-1	2	0	1	0	0	0	2	3002.0	5.0	1.0
3	12	3	2	0	0	1	0	4	4	0	0	0	0	1	1	1	3003.0	4.0	0.0
3	12	4	7	0	0	0	0	-1	-1	3	0	1	0	0	0	2	3004.0	5.0	1.0
3	12	5	9	0	0	0	0	4	3	0	0	0	0	1	0	1	3005.0	5.0	0.0
3	12	6	6	0	0	1	0	4	4	0	0	0	0	1	1	1	3006.0	4.0	0.0
3	12	7	5	0	0	1	0	4	4	0	0	0	0	1	1	1	3007.0	5.0	0.0
3	12	8	4	0	0	1	0	4	4	0	0	0	0	1	1	1	3008.0	5.0	0.0
3	12	9	6	0	0	1	0	4	4	1	1	0	0	1	0	2	3009.0	3.0	0.0
3	12	10	4	0	0	1	0	4	4	1	1	0	0	1	0	2	3010.0	5.0	0.0
3	12	11	11	0	0	0	0	4	2	0	0	0	0	1	0	1	3011.0	5.0	0.0
3	12	12	10	0	0	0	0	5	3	1	1	0	0	1	0	2	3012.0	4.0	0.0
3	12	13	12	0	0	0	0	5	-1	0	0	1	0	0	0	1	3013.0	7.0	1.0
3	12	14	10	0	0	0	0	5	3	0	0	0	0	1	0	1	3014.0	5.0	0.0
3	12	15	11	0	0	0	0	4	2	1	1	0	0	1	0	2	3015.0	5.0	0.0
3	12	16	3	0	0	1	0	4	4	1	1	0	0	1	0	2	3016.0	5.0	0.0
3	12	17	5	0	0	1	0	4	4	1	1	0	0	1	0	2	3017.0	2.0	0.0
3	12	18	7	0	0	0	0	-1	-1	0	0	1	0	0	0	1	3018.0	5.0	1.0
3	12	19	8	0	0	0	0	-1	-1	0	0	1	0	0	0	1	3019.0	8.0	1.0
3	12	20	8	0	0	0	0	-1	-1	3	0	1	0	0	0	2	3020.0	5.0	1.0
3	12	21	1	0	0	1	0	4	4	1	1	0	0	1	0	2	3021.0	4.0	0.0
3	12	22	1	0	0	1	0	4	4	0	0	0	0	1	1	1	3022.0	4.0	0.0
3	12	23	9	0	0	0	0	4	3	1	1	0	0	1	0	2	3023.0	5.0	0.0
3	12	24	2	0	0	1	0	4	4	1	1	0	0	1	0	2	3024.0	11.0	0.0
3	13	1	3	0	0	1	0	4	4	1	1	0	0	1	0	2	3001.0	2.0	0.0
3	13	2	12	0	0	0	0	-1	-1	0	0	1	0	0	0	1	3002.0	5.0	1.0
3	13	3	2	0	0	1	0	4	4	1	1	0	0	1	0	2	3003.0	4.0	0.0
3	13	4	7	0	0	0	0	-1	-1	0	0	1	0	0	0	1	3004.0	5.0	1.0
3	13	5	9	0	0	0	0	-1	-1	3	0	1	0	0	0	2	3005.0	5.0	1.0
3	13	6	2	0	0	1	0	4	4	0	0	0	0	1	1	1	3006.0	4.0	0.0
3	13	7	1	0	0	1	0	4	4	0	0	0	0	1	1	1	3007.0	5.0	0.0
3	13	8	4	0	0	1	0	4	4	0	0	0	0	1	1	1	3008.0	5.0	0.0
3	13	9	5	0	0	1	0	4	4	0	0	0	0	1	1	1	3009.0	3.0	0.0
3	13	10	5	0	0	1	0	4	4	1	1	0	0	1	0	2	3010.0	5.0	0.0
3	13	11	11	0	0	0	0	5	-1	2	0	1	0	0	0	2	3011.0	5.0	1.0
3	13	12	9	0	0	0	0	-1	-1	0	0	1	0	0	0	1	3012.0	4.0	1.0
3	13	13	11	0	0	0	0	5	-1	0	0	1	0	0	0	1	3013.0	7.0	1.0
3	13	14	10	0	0	0	0	4	-1	2	0	1	0	0	0	2	3014.0	5.0	1.0
3	13	15	12	0	0	0	0	-1	-1	3	0	1	0	0	0	2	3015.0	5.0	1.0
3	13	16	6	0	0	1	0	4	4	1	1	0	0	1	0	2	3016.0	5.0	0.0
3	13	17	6	0	0	1	0	4	4	0	0	0	0	1	1	1	3017.0	2.0	0.0
3	13	18	8	0	0	0	0	5	-1	2	0	1	0	0	0	2	3018.0	5.0	1.0
3	13	19	7	0	0	0	0	-1	-1	3	0	1	0	0	0	2	3019.0	8.0	1.0
3	13	20	8	0	0	0	0	5	-1	0	0	1	0	0	0	1	3020.0	5.0	1.0
3	13	21	4	0	0	1	0	4	4	1	1	0	0	1	0	2	3021.0	4.0	0.0
3	13	22	1	0	0	1	0	4	4	1	1	0	0	1	0	2	3022.0	4.0	0.0
3	13	23	10	0	0	0	0	4	-1	0	0	1	0	0	0	1	3023.0	5.0	1.0
3	13	24	3	0	0	1	0	4	4	0	0	0	0	1	1	1	3024.0	11.0	0.0
3	14	1	3	0	0	1	0	4	4	0	0	0	0	1	1	1	3001.0	2.0	0.0
3	14	2	8	0	0	0	0	5	-1	2	0	1	0	0	0	2	3002.0	5.0	1.0
3	14	3	2	0	0	1	0	4	4	0	0	0	0	1	1	1	3003.0	4.0	0.0
3	14	4	7	0	0	0	0	4	-1	0	0	1	0	0	0	1	3004.0	5.0	1.0
3	14	5	9	0	0	0	0	4	3	1	1	0	0	1	0	2	3005.0	5.0	0.0
3	14	6	1	0	0	1	0	4	4	0	0	0	0	1	1	1	3006.0	4.0	0.0
3	14	7	2	0	0	1	0	4	4	1	1	0	0	1	0	2	3007.0	5.0	0.0
3	14	8	4	0	0	1	0	4	4	1	1	0	0	1	0	2	3008.0	5.0	0.0
3	14	9	6	0	0	1	0	4	4	1	1	0	0	1	0	2	3009.0	3.0	0.0
3	14	10	5	0	0	1	0	4	4	1	1	0	0	1	0	2	3010.0	5.0	0.0
3	14	11	7	0	0	0	0	4	-1	2	0	1	0	0	0	2	3011.0	5.0	1.0
3	14	12	12	0	0	0	0	5	3	0	0	0	0	1	0	1	3012.0	4.0	0.0
3	14	13	12	0	0	0	0	5	3	1	1	0	0	1	0	2	3013.0	7.0	0.0
3	14	14	10	0	0	0	0	7	-1	2	0	1	0	0	0	2	3014.0	5.0	1.0
3	14	15	11	0	0	0	0	4	3	1	1	0	0	1	0	2	3015.0	5.0	0.0
3	14	16	6	0	0	1	0	4	4	0	0	0	0	1	1	1	3016.0	5.0	0.0
3	14	17	5	0	0	1	0	4	4	0	0	0	0	1	1	1	3017.0	2.0	0.0
3	14	18	9	0	0	0	0	4	3	0	0	0	0	1	0	1	3018.0	5.0	0.0
3	14	19	10	0	0	0	0	7	-1	0	0	1	0	0	0	1	3019.0	8.0	1.0
3	14	20	8	0	0	0	0	5	-1	0	0	1	0	0	0	1	3020.0	5.0	1.0
3	14	21	3	0	0	1	0	4	4	1	1	0	0	1	0	2	3021.0	4.0	0.0
3	14	22	1	0	0	1	0	4	4	1	1	0	0	1	0	2	3022.0	4.0	0.0
3	14	23	11	0	0	0	0	4	3	0	0	0	0	1	0	1	3023.0	5.0	0.0
3	14	24	4	0	0	1	0	4	4	0	0	0	0	1	1	1	3024.0	11.0	0.0
3	15	1	3	0	0	1	0	4	4	1	1	0	0	1	0	2	3001.0	2.0	0.0
3	15	2	7	0	0	0	0	4	-1	2	0	1	0	0	0	2	3002.0	5.0	1.0
3	15	3	2	0	0	1	0	4	4	0	0	0	0	1	1	1	3003.0	4.0	0.0
3	15	4	7	0	0	0	0	4	-1	0	0	1	0	0	0	1	3004.0	5.0	1.0
3	15	5	9	0	0	0	0	6	4	1	1	0	0	1	0	2	3005.0	5.0	0.0
3	15	6	4	0	0	1	0	4	4	1	1	0	0	1	0	2	3006.0	4.0	0.0
3	15	7	3	0	0	1	0	4	4	0	0	0	0	1	1	1	3007.0	5.0	0.0
3	15	8	4	0	0	1	0	4	4	0	0	0	0	1	1	1	3008.0	5.0	0.0
3	15	9	1	0	0	1	0	4	4	0	0	0	0	1	1	1	3009.0	3.0	0.0
3	15	10	5	0	0	1	0	4	4	1	1	0	0	1	0	2	3010.0	5.0	0.0
3	15	11	8	0	0	0	0	5	-1	0	0	1	0	0	0	1	3011.0	5.0	1.0
3	15	12	12	0	0	0	0	5	-1	0	0	1	0	0	0	1	3012.0	4.0	1.0
3	15	13	11	0	0	0	0	4	3	1	1	0	0	1	0	2	3013.0	7.0	0.0
3	15	14	10	0	0	0	0	5	3	0	0	0	0	1	0	1	3014.0	5.0	0.0
3	15	15	12	0	0	0	0	5	-1	2	0	1	0	0	0	2	3015.0	5.0	1.0
3	15	16	6	0	0	1	0	4	4	1	1	0	0	1	0	2	3016.0	5.0	0.0
3	15	17	2	0	0	1	0	4	4	1	1	0	0	1	0	2	3017.0	2.0	0.0
3	15	18	10	0	0	0	0	5	3	1	1	0	0	1	0	2	3018.0	5.0	0.0
3	15	19	9	0	0	0	0	6	4	0	0	0	0	1	0	1	3019.0	8.0	0.0
3	15	20	8	0	0	0	0	5	-1	2	0	1	0	0	0	2	3020.0	5.0	1.0
3	15	21	6	0	0	1	0	4	4	0	0	0	0	1	1	1	3021.0	4.0	0.0
3	15	22	1	0	0	1	0	4	4	1	1	0	0	1	0	2	3022.0	4.0	0.0
3	15	23	11	0	0	0	0	4	3	0	0	0	0	1	0	1	3023.0	5.0	0.0
3	15	24	5	0	0	1	0	4	4	0	0	0	0	1	1	1	3024.0	11.0	0.0
3	16	1	5	0	0	0	1	5	2	1	2	0	1	0	0	2	3001.0	2.0	1.0
3	16	2	12	0	0	0	0	4	-1	0	0	1	0	0	0	1	3002.0	5.0	1.0
3	16	3	11	0	0	0	0	-1	-1	0	0	1	0	0	0	1	3003.0	4.0	1.0
3	16	4	11	0	0	0	0	-1	-1	3	0	1	0	0	0	2	3004.0	5.0	1.0
3	16	5	7	0	0	0	0	4	4	0	0	0	0	1	0	1	3005.0	5.0	0.0
3	16	6	4	0	0	0	1	-1	-1	3	0	1	0	0	0	2	3006.0	4.0	1.0
3	16	7	7	0	0	0	0	4	4	1	1	0	0	1	0	2	3007.0	5.0	0.0
3	16	8	2	0	0	0	1	4	4	0	0	0	0	1	0	1	3008.0	5.0	0.0
3	16	9	4	0	0	0	1	-1	-1	0	0	1	0	0	0	1	3009.0	3.0	1.0
3	16	10	9	0	0	0	0	-1	-1	3	0	1	0	0	0	2	3010.0	5.0	1.0
3	16	11	1	0	0	0	1	4	-1	2	0	1	0	0	0	2	3011.0	5.0	1.0
3	16	12	5	0	0	0	1	5	2	0	0	0	1	0	0	1	3012.0	4.0	1.0
3	16	13	6	0	0	0	1	4	-1	2	0	1	0	0	0	2	3013.0	7.0	1.0
3	16	14	10	0	0	0	0	5	-1	0	0	0	1	0	0	1	3014.0	5.0	1.0
3	16	15	8	0	0	0	0	5	-1	1	3	0	1	0	0	2	3015.0	5.0	1.0
3	16	16	3	0	0	0	1	4	-1	0	0	0	1	0	0	1	3016.0	5.0	1.0
3	16	17	8	0	0	0	0	5	-1	0	0	0	1	0	0	1	3017.0	2.0	1.0
3	16	18	9	0	0	0	0	-1	-1	0	0	1	0	0	0	1	3018.0	5.0	1.0
3	16	19	1	0	0	0	1	4	-1	0	0	1	0	0	0	1	3019.0	8.0	1.0
3	16	20	3	0	0	0	1	4	-1	1	3	0	1	0	0	2	3020.0	5.0	1.0
3	16	21	6	0	0	0	1	4	-1	0	0	1	0	0	0	1	3021.0	4.0	1.0
3	16	22	12	0	0	0	0	4	-1	2	0	1	0	0	0	2	3022.0	4.0	1.0
3	16	23	10	0	0	0	0	5	-1	1	3	0	1	0	0	2	3023.0	5.0	1.0
3	16	24	2	0	0	0	1	4	4	1	1	0	0	1	0	2	3024.0	11.0	0.0
3	17	1	7	0	0	0	0	-1	-1	0	0	0	0	0	0	2	3001.0	2.0	0.0
3	17	2	6	0	0	0	0	-1	-1	0	0	0	0	0	0	2	3002.0	5.0	0.0
3	17	3	9	0	0	0	0	-1	-1	0	0	0	0	0	0	1	3003.0	4.0	0.0
3	17	4	2	0	0	0	0	-1	-1	0	0	0	0	0	0	1	3004.0	5.0	0.0
3	17	5	12	0	0	0	0	-1	-1	0	0	0	0	0	0	1	3005.0	5.0	0.0
3	17	6	11	0	0	0	0	-1	-1	0	0	0	0	0	0	2	3006.0	4.0	0.0
3	17	7	12	0	0	0	0	-1	-1	0	0	0	0	0	0	2	3007.0	5.0	0.0
3	17	8	5	0	0	0	0	-1	-1	0	0	0	0	0	0	1	3008.0	5.0	0.0
3	17	9	4	0	0	0	0	-1	-1	0	0	0	0	0	0	2	3009.0	3.0	0.0
3	17	10	2	0	0	0	0	-1	-1	0	0	0	0	0	0	2	3010.0	5.0	0.0
3	17	11	3	0	0	0	0	-1	-1	0	0	0	0	0	0	1	3011.0	5.0	0.0
3	17	12	7	0	0	0	0	-1	-1	0	0	0	0	0	0	1	3012.0	4.0	0.0
3	17	13	10	0	0	0	0	-1	-1	0	0	0	0	0	0	2	3013.0	7.0	0.0
3	17	14	8	0	0	0	0	-1	-1	0	0	0	0	0	0	2	3014.0	5.0	0.0
3	17	15	4	0	0	0	0	-1	-1	0	0	0	0	0	0	1	3015.0	5.0	0.0
3	17	16	5	0	0	0	0	-1	-1	0	0	0	0	0	0	2	3016.0	5.0	0.0
3	17	17	9	0	0	0	0	-1	-1	0	0	0	0	0	0	2	3017.0	2.0	0.0
3	17	18	10	0	0	0	0	-1	-1	0	0	0	0	0	0	1	3018.0	5.0	0.0
3	17	19	8	0	0	0	0	-1	-1	0	0	0	0	0	0	1	3019.0	8.0	0.0
3	17	20	1	0	0	0	0	-1	-1	0	0	0	0	0	0	2	3020.0	5.0	0.0
3	17	21	1	0	0	0	0	-1	-1	0	0	0	0	0	0	1	3021.0	4.0	0.0
3	17	22	6	0	0	0	0	-1	-1	0	0	0	0	0	0	1	3022.0	4.0	0.0
3	17	23	3	0	0	0	0	-1	-1	0	0	0	0	0	0	2	3023.0	5.0	0.0
3	17	24	11	0	0	0	0	-1	-1	0	0	0	0	0	0	1	3024.0	11.0	0.0
2	1	1	1	1	1	0	0	4	4	0	0	0	0	1	1	1	2001.0	7.0	0.0
2	1	2	1	1	1	0	0	4	4	1	1	0	0	1	0	2	2002.0	7.0	0.0
2	1	3	2	1	1	0	0	3	3	0	0	0	0	1	1	1	2003.0	6.0	0.0
2	1	4	2	1	1	0	0	3	3	1	1	0	0	1	0	2	2004.0	4.0	0.0
2	1	5	3	1	1	0	0	4	4	1	1	0	0	1	0	2	2005.0	5.0	0.0
2	1	6	3	1	1	0	0	4	4	0	0	0	0	1	1	1	2006.0	6.0	0.0
2	1	7	4	0	1	0	0	4	2	1	1	0	0	1	0	2	2007.0	5.0	0.0
2	1	8	5	0	1	0	0	5	2	1	1	0	0	1	0	2	2008.0	5.0	0.0
2	1	9	5	0	1	0	0	5	2	0	0	0	0	1	0	1	2009.0	7.0	0.0
2	1	10	6	0	1	0	0	5	2	1	2	0	1	0	0	2	2010.0	5.0	1.0
2	1	11	6	0	1	0	0	5	2	0	0	0	1	0	0	1	2011.0	5.0	1.0
2	1	12	4	0	1	0	0	4	2	0	0	0	0	1	0	1	2012.0	7.0	0.0
2	1	13	7	1	0	0	0	4	4	0	0	0	0	1	1	1	2013.0	7.0	0.0
2	1	14	7	1	0	0	0	4	4	1	1	0	0	1	0	2	2014.0	5.0	0.0
2	1	15	8	1	0	0	0	3	3	0	0	0	0	1	1	1	2015.0	4.0	0.0
2	1	16	8	1	0	0	0	3	3	1	1	0	0	1	0	2	2016.0	5.0	0.0
2	1	17	9	1	0	0	0	3	3	0	0	0	0	1	1	1	2017.0	9.0	0.0
2	1	18	9	1	0	0	0	3	3	1	1	0	0	1	0	2	2018.0	6.0	0.0
2	1	19	11	0	0	0	0	5	-1	0	0	1	0	0	0	1	2019.0	7.0	1.0
2	1	20	10	0	0	0	0	4	-1	0	0	1	0	0	0	1	2020.0	3.0	1.0
2	1	21	10	0	0	0	0	4	-1	2	0	1	0	0	0	2	2021.0	7.0	1.0
2	1	22	11	0	0	0	0	5	-1	2	0	1	0	0	0	2	2022.0	5.0	1.0
2	2	1	1	1	1	0	0	4	4	0	0	0	0	1	1	1	2001.0	7.0	0.0
2	2	2	2	1	1	0	0	3	-1	0	0	1	0	0	0	1	2002.0	7.0	1.0
2	2	3	1	1	1	0	0	4	4	1	1	0	0	1	0	2	2003.0	6.0	0.0
2	2	4	3	1	1	0	0	2	2	0	0	0	0	1	1	1	2004.0	4.0	0.0
2	2	5	2	1	1	0	0	3	-1	2	0	1	0	0	0	2	2005.0	5.0	1.0
2	2	6	3	1	1	0	0	2	2	1	1	0	0	1	0	2	2006.0	6.0	0.0
2	2	7	4	0	1	0	0	5	4	1	1	0	0	1	0	2	2007.0	5.0	0.0
2	2	8	5	0	1	0	0	5	-1	0	0	1	0	0	0	1	2008.0	5.0	1.0
2	2	9	6	0	1	0	0	5	-1	0	0	1	0	0	0	1	2009.0	7.0	1.0
2	2	10	4	0	1	0	0	5	4	0	0	0	0	1	0	1	2010.0	5.0	0.0
2	2	11	6	0	1	0	0	5	-1	2	0	1	0	0	0	2	2011.0	5.0	1.0
2	2	12	5	0	1	0	0	5	-1	2	0	1	0	0	0	2	2012.0	7.0	1.0
2	2	13	7	1	0	0	0	4	4	0	0	0	0	1	1	1	2013.0	7.0	0.0
2	2	14	8	1	0	0	0	3	3	0	0	0	0	1	1	1	2014.0	5.0	0.0
2	2	15	7	1	0	0	0	4	4	1	1	0	0	1	0	2	2015.0	4.0	0.0
2	2	16	9	1	0	0	0	3	3	0	0	0	0	1	1	1	2016.0	5.0	0.0
2	2	17	8	1	0	0	0	3	3	1	1	0	0	1	0	2	2017.0	9.0	0.0
2	2	18	9	1	0	0	0	3	3	1	1	0	0	1	0	2	2018.0	6.0	0.0
2	2	19	10	0	0	0	0	5	-1	2	0	1	0	0	0	2	2019.0	7.0	1.0
2	2	20	10	0	0	0	0	5	-1	0	0	1	0	0	0	1	2020.0	3.0	1.0
2	2	21	11	0	0	0	0	4	-1	0	0	1	0	0	0	1	2021.0	7.0	1.0
2	2	22	11	0	0	0	0	4	-1	2	0	1	0	0	0	2	2022.0	5.0	1.0
2	3	1	1	1	1	0	0	4	4	0	0	0	0	1	1	1	2001.0	7.0	0.0
2	3	2	2	1	1	0	0	3	-1	2	0	1	0	0	0	2	2002.0	7.0	1.0
2	3	3	2	1	1	0	0	3	-1	0	0	1	0	0	0	1	2003.0	6.0	1.0
2	3	4	3	1	1	0	0	4	4	1	1	0	0	1	0	2	2004.0	4.0	0.0
2	3	5	3	1	1	0	0	4	4	0	0	0	0	1	1	1	2005.0	5.0	0.0
2	3	6	1	1	1	0	0	4	4	1	1	0	0	1	0	2	2006.0	6.0	0.0
2	3	7	4	0	1	0	0	5	2	1	1	0	0	1	0	2	2007.0	5.0	0.0
2	3	8	5	0	1	0	0	5	-1	2	0	1	0	0	0	2	2008.0	5.0	1.0
2	3	9	6	0	1	0	0	8	-1	0	0	1	0	0	0	1	2009.0	7.0	1.0
2	3	10	5	0	1	0	0	5	-1	0	0	1	0	0	0	1	2010.0	5.0	1.0
2	3	11	4	0	1	0	0	5	2	0	0	0	0	1	0	1	2011.0	5.0	0.0
2	3	12	6	0	1	0	0	8	-1	2	0	1	0	0	0	2	2012.0	7.0	1.0
2	3	13	7	1	0	0	0	3	3	1	1	0	0	1	0	2	2013.0	7.0	0.0
2	3	14	8	1	0	0	0	3	3	0	0	0	0	1	1	1	2014.0	5.0	0.0
2	3	15	8	1	0	0	0	3	3	1	1	0	0	1	0	2	2015.0	4.0	0.0
2	3	16	9	1	0	0	0	3	-1	0	0	1	0	0	0	1	2016.0	5.0	1.0
2	3	17	9	1	0	0	0	3	-1	2	0	1	0	0	0	2	2017.0	9.0	1.0
2	3	18	7	1	0	0	0	3	3	0	0	0	0	1	1	1	2018.0	6.0	0.0
2	3	19	10	0	0	0	0	5	-1	2	0	1	0	0	0	2	2019.0	7.0	1.0
2	3	20	10	0	0	0	0	5	-1	0	0	1	0	0	0	1	2020.0	3.0	1.0
2	3	21	11	0	0	0	0	7	-1	2	0	1	0	0	0	2	2021.0	7.0	1.0
2	3	22	11	0	0	0	0	7	-1	0	0	1	0	0	0	1	2022.0	5.0	1.0
2	4	1	1	1	1	0	0	4	4	0	0	0	0	1	1	1	2001.0	7.0	0.0
2	4	2	2	1	1	0	0	4	4	0	0	0	0	1	1	1	2002.0	7.0	0.0
2	4	3	3	1	1	0	0	4	4	0	0	0	0	1	1	1	2003.0	6.0	0.0
2	4	4	1	1	1	0	0	4	4	1	1	0	0	1	0	2	2004.0	4.0	0.0
2	4	5	3	1	1	0	0	4	4	1	1	0	0	1	0	2	2005.0	5.0	0.0
2	4	6	2	1	1	0	0	4	4	1	1	0	0	1	0	2	2006.0	6.0	0.0
2	4	7	4	0	1	0	0	5	2	0	0	0	0	1	0	1	2007.0	5.0	0.0
2	4	8	4	0	1	0	0	5	2	1	1	0	0	1	0	2	2008.0	5.0	0.0
2	4	9	5	0	1	0	0	5	-1	2	0	1	0	0	0	2	2009.0	7.0	1.0
2	4	10	5	0	1	0	0	5	-1	0	0	1	0	0	0	1	2010.0	5.0	1.0
2	4	11	6	0	1	0	0	5	-1	0	0	1	0	0	0	1	2011.0	5.0	1.0
2	4	12	6	0	1	0	0	5	-1	2	0	1	0	0	0	2	2012.0	7.0	1.0
2	4	13	7	1	0	0	0	3	3	0	0	0	0	1	1	1	2013.0	7.0	0.0
2	4	14	8	1	0	0	0	3	-1	0	0	1	0	0	0	1	2014.0	5.0	1.0
2	4	15	9	1	0	0	0	5	5	1	1	0	0	1	0	2	2015.0	4.0	0.0
2	4	16	7	1	0	0	0	3	3	1	1	0	0	1	0	2	2016.0	5.0	0.0
2	4	17	9	1	0	0	0	5	5	0	0	0	0	1	1	1	2017.0	9.0	0.0
2	4	18	8	1	0	0	0	3	-1	2	0	1	0	0	0	2	2018.0	6.0	1.0
2	4	19	11	0	0	0	0	8	-1	0	0	1	0	0	0	1	2019.0	7.0	1.0
2	4	20	10	0	0	0	0	8	3	1	1	0	0	1	0	2	2020.0	3.0	0.0
2	4	21	11	0	0	0	0	8	-1	2	0	1	0	0	0	2	2021.0	7.0	1.0
2	4	22	10	0	0	0	0	8	3	0	0	0	0	1	0	1	2022.0	5.0	0.0
2	5	1	1	1	1	0	0	4	4	1	1	0	0	1	0	2	2001.0	7.0	0.0
2	5	2	2	1	1	0	0	3	-1	2	0	1	0	0	0	2	2002.0	7.0	1.0
2	5	3	3	1	1	0	0	4	4	0	0	0	0	1	1	1	2003.0	6.0	0.0
2	5	4	2	1	1	0	0	3	-1	0	0	1	0	0	0	1	2004.0	4.0	1.0
2	5	5	1	1	1	0	0	4	4	0	0	0	0	1	1	1	2005.0	5.0	0.0
2	5	6	3	1	1	0	0	4	4	1	1	0	0	1	0	2	2006.0	6.0	0.0
2	5	7	4	0	1	0	0	5	-1	2	0	1	0	0	0	2	2007.0	5.0	1.0
2	5	8	5	0	1	0	0	10	-1	0	0	1	0	0	0	1	2008.0	5.0	1.0
2	5	9	4	0	1	0	0	5	-1	0	0	1	0	0	0	1	2009.0	7.0	1.0
2	5	10	6	0	1	0	0	6	-1	0	0	1	0	0	0	1	2010.0	5.0	1.0
2	5	11	5	0	1	0	0	10	-1	2	0	1	0	0	0	2	2011.0	5.0	1.0
2	5	12	6	0	1	0	0	6	-1	2	0	1	0	0	0	2	2012.0	7.0	1.0
2	5	13	7	1	0	0	0	3	3	0	0	0	0	1	1	1	2013.0	7.0	0.0
2	5	14	8	1	0	0	0	3	-1	2	0	1	0	0	0	2	2014.0	5.0	1.0
2	5	15	9	1	0	0	0	3	3	1	1	0	0	1	0	2	2015.0	4.0	0.0
2	5	16	8	1	0	0	0	3	-1	0	0	1	0	0	0	1	2016.0	5.0	1.0
2	5	17	7	1	0	0	0	3	3	1	1	0	0	1	0	2	2017.0	9.0	0.0
2	5	18	9	1	0	0	0	3	3	0	0	0	0	1	1	1	2018.0	6.0	0.0
2	5	19	10	0	0	0	0	9	-1	2	0	1	0	0	0	2	2019.0	7.0	1.0
2	5	20	11	0	0	0	0	5	5	0	0	0	0	1	0	1	2020.0	3.0	0.0
2	5	21	11	0	0	0	0	5	5	1	1	0	0	1	0	2	2021.0	7.0	0.0
2	5	22	10	0	0	0	0	9	-1	0	0	1	0	0	0	1	2022.0	5.0	1.0
2	6	1	1	0	1	0	0	4	2	1	2	0	1	0	0	2	2001.0	7.0	1.0
2	6	2	2	0	1	0	0	4	2	1	1	0	0	1	0	2	2002.0	7.0	0.0
2	6	3	3	0	1	0	0	2	-1	2	0	1	0	0	0	2	2003.0	6.0	1.0
2	6	4	2	0	1	0	0	4	2	0	0	0	0	1	0	1	2004.0	4.0	0.0
2	6	5	1	0	1	0	0	4	2	0	0	0	1	0	0	1	2005.0	5.0	1.0
2	6	6	3	0	1	0	0	2	-1	0	0	1	0	0	0	1	2006.0	6.0	1.0
2	6	7	4	1	1	0	0	4	4	1	1	0	0	1	0	2	2007.0	5.0	0.0
2	6	8	5	1	1	0	0	2	-1	0	0	1	0	0	0	1	2008.0	5.0	1.0
2	6	9	4	1	1	0	0	4	4	0	0	0	0	1	1	1	2009.0	7.0	0.0
2	6	10	6	1	1	0	0	4	4	0	0	0	0	1	1	1	2010.0	5.0	0.0
2	6	11	5	1	1	0	0	2	-1	2	0	1	0	0	0	2	2011.0	5.0	1.0
2	6	12	6	1	1	0	0	4	4	1	1	0	0	1	0	2	2012.0	7.0	0.0
2	6	13	7	0	0	0	0	4	-1	0	0	1	0	0	0	1	2013.0	7.0	1.0
2	6	14	8	0	0	0	0	2	-1	0	0	1	0	0	0	1	2014.0	5.0	1.0
2	6	15	9	0	0	0	0	3	-1	0	0	1	0	0	0	1	2015.0	4.0	1.0
2	6	16	8	0	0	0	0	2	-1	2	0	1	0	0	0	2	2016.0	5.0	1.0
2	6	17	7	0	0	0	0	4	-1	2	0	1	0	0	0	2	2017.0	9.0	1.0
2	6	18	9	0	0	0	0	3	-1	2	0	1	0	0	0	2	2018.0	6.0	1.0
2	6	19	11	1	0	0	0	4	4	1	1	0	0	1	0	2	2019.0	7.0	0.0
2	6	20	10	1	0	0	0	3	-1	0	0	1	0	0	0	1	2020.0	3.0	1.0
2	6	21	11	1	0	0	0	4	4	0	0	0	0	1	1	1	2021.0	7.0	0.0
2	6	22	10	1	0	0	0	3	-1	2	0	1	0	0	0	2	2022.0	5.0	1.0
2	7	1	1	0	1	0	0	5	2	1	2	0	1	0	0	2	2001.0	7.0	1.0
2	7	2	1	0	1	0	0	5	2	0	0	0	1	0	0	1	2002.0	7.0	1.0
2	7	3	2	0	1	0	0	4	-1	0	0	1	0	0	0	1	2003.0	6.0	1.0
2	7	4	2	0	1	0	0	4	-1	2	0	1	0	0	0	2	2004.0	4.0	1.0
2	7	5	3	0	1	0	0	4	2	0	0	0	0	1	0	1	2005.0	5.0	0.0
2	7	6	3	0	1	0	0	4	2	1	1	0	0	1	0	2	2006.0	6.0	0.0
2	7	7	4	1	1	0	0	4	4	0	0	0	0	1	1	1	2007.0	5.0	0.0
2	7	8	5	1	1	0	0	5	5	0	0	0	0	1	1	1	2008.0	5.0	0.0
2	7	9	5	1	1	0	0	5	5	1	1	0	0	1	0	2	2009.0	7.0	0.0
2	7	10	6	1	1	0	0	4	4	0	0	0	0	1	1	1	2010.0	5.0	0.0
2	7	11	6	1	1	0	0	4	4	1	1	0	0	1	0	2	2011.0	5.0	0.0
2	7	12	4	1	1	0	0	4	4	1	1	0	0	1	0	2	2012.0	7.0	0.0
2	7	13	7	0	0	0	0	5	2	0	0	0	1	0	0	1	2013.0	7.0	1.0
2	7	14	7	0	0	0	0	5	2	1	2	0	1	0	0	2	2014.0	5.0	1.0
2	7	15	8	0	0	0	0	4	3	0	0	0	0	1	0	1	2015.0	4.0	0.0
2	7	16	8	0	0	0	0	4	3	1	1	0	0	1	0	2	2016.0	5.0	0.0
2	7	17	9	0	0	0	0	3	-1	2	0	1	0	0	0	2	2017.0	9.0	1.0
2	7	18	9	0	0	0	0	3	-1	0	0	1	0	0	0	1	2018.0	6.0	1.0
2	7	19	10	1	0	0	0	3	-1	2	0	1	0	0	0	2	2019.0	7.0	1.0
2	7	20	10	1	0	0	0	3	-1	0	0	1	0	0	0	1	2020.0	3.0	1.0
2	7	21	11	1	0	0	0	5	5	1	1	0	0	1	0	2	2021.0	7.0	0.0
2	7	22	11	1	0	0	0	5	5	0	0	0	0	1	1	1	2022.0	5.0	0.0
2	8	1	1	0	1	0	0	4	2	1	2	0	1	0	0	2	2001.0	7.0	1.0
2	8	2	2	0	1	0	0	4	-1	2	0	1	0	0	0	2	2002.0	7.0	1.0
2	8	3	1	0	1	0	0	4	2	0	0	0	1	0	0	1	2003.0	6.0	1.0
2	8	4	3	0	1	0	0	5	-1	2	0	1	0	0	0	2	2004.0	4.0	1.0
2	8	5	2	0	1	0	0	4	-1	0	0	1	0	0	0	1	2005.0	5.0	1.0
2	8	6	3	0	1	0	0	5	-1	0	0	1	0	0	0	1	2006.0	6.0	1.0
2	8	7	4	1	1	0	0	4	4	0	0	0	0	1	1	1	2007.0	5.0	0.0
2	8	8	5	1	1	0	0	4	4	0	0	0	0	1	1	1	2008.0	5.0	0.0
2	8	9	6	1	1	0	0	4	4	0	0	0	0	1	1	1	2009.0	7.0	0.0
2	8	10	4	1	1	0	0	4	4	1	1	0	0	1	0	2	2010.0	5.0	0.0
2	8	11	6	1	1	0	0	4	4	1	1	0	0	1	0	2	2011.0	5.0	0.0
2	8	12	5	1	1	0	0	4	4	1	1	0	0	1	0	2	2012.0	7.0	0.0
2	8	13	7	0	0	0	0	4	-1	2	0	1	0	0	0	2	2013.0	7.0	1.0
2	8	14	8	0	0	0	0	2	-1	0	0	1	0	0	0	1	2014.0	5.0	1.0
2	8	15	7	0	0	0	0	4	-1	0	0	1	0	0	0	1	2015.0	4.0	1.0
2	8	16	9	0	0	0	0	4	4	0	0	0	0	1	0	1	2016.0	5.0	0.0
2	8	17	8	0	0	0	0	2	-1	2	0	1	0	0	0	2	2017.0	9.0	1.0
2	8	18	9	0	0	0	0	4	4	1	1	0	0	1	0	2	2018.0	6.0	0.0
2	8	19	11	1	0	0	0	5	5	1	1	0	0	1	0	2	2019.0	7.0	0.0
2	8	20	11	1	0	0	0	5	5	0	0	0	0	1	1	1	2020.0	3.0	0.0
2	8	21	10	1	0	0	0	4	4	0	0	0	0	1	1	1	2021.0	7.0	0.0
2	8	22	10	1	0	0	0	4	4	1	1	0	0	1	0	2	2022.0	5.0	0.0
2	9	1	1	0	1	0	0	4	3	0	0	0	0	1	0	1	2001.0	7.0	0.0
2	9	2	2	0	1	0	0	4	-1	0	0	1	0	0	0	1	2002.0	7.0	1.0
2	9	3	2	0	1	0	0	4	-1	2	0	1	0	0	0	2	2003.0	6.0	1.0
2	9	4	3	0	1	0	0	4	-1	2	0	1	0	0	0	2	2004.0	4.0	1.0
2	9	5	3	0	1	0	0	4	-1	0	0	1	0	0	0	1	2005.0	5.0	1.0
2	9	6	1	0	1	0	0	4	3	1	1	0	0	1	0	2	2006.0	6.0	0.0
2	9	7	4	1	1	0	0	4	4	1	1	0	0	1	0	2	2007.0	5.0	0.0
2	9	8	5	1	1	0	0	4	4	0	0	0	0	1	1	1	2008.0	5.0	0.0
2	9	9	6	1	1	0	0	4	4	0	0	0	0	1	1	1	2009.0	7.0	0.0
2	9	10	5	1	1	0	0	4	4	1	1	0	0	1	0	2	2010.0	5.0	0.0
2	9	11	4	1	1	0	0	4	4	0	0	0	0	1	1	1	2011.0	5.0	0.0
2	9	12	6	1	1	0	0	4	4	1	1	0	0	1	0	2	2012.0	7.0	0.0
2	9	13	7	0	0	0	0	5	3	0	0	0	0	1	0	1	2013.0	7.0	0.0
2	9	14	8	0	0	0	0	2	-1	0	0	1	0	0	0	1	2014.0	5.0	1.0
2	9	15	8	0	0	0	0	2	-1	2	0	1	0	0	0	2	2015.0	4.0	1.0
2	9	16	9	0	0	0	0	6	2	1	1	0	0	1	0	2	2016.0	5.0	0.0
2	9	17	9	0	0	0	0	6	2	0	0	0	0	1	0	1	2017.0	9.0	0.0
2	9	18	7	0	0	0	0	5	3	1	1	0	0	1	0	2	2018.0	6.0	0.0
2	9	19	10	1	0	0	0	4	4	0	0	0	0	1	1	1	2019.0	7.0	0.0
2	9	20	11	1	0	0	0	4	4	1	1	0	0	1	0	2	2020.0	3.0	0.0
2	9	21	10	1	0	0	0	4	4	1	1	0	0	1	0	2	2021.0	7.0	0.0
2	9	22	11	1	0	0	0	4	4	0	0	0	0	1	1	1	2022.0	5.0	0.0
2	10	1	1	0	1	0	0	4	-1	0	0	1	0	0	0	1	2001.0	7.0	1.0
2	10	2	2	0	1	0	0	4	-1	0	0	1	0	0	0	1	2002.0	7.0	1.0
2	10	3	3	0	1	0	0	5	-1	0	0	1	0	0	0	1	2003.0	6.0	1.0
2	10	4	1	0	1	0	0	4	-1	2	0	1	0	0	0	2	2004.0	4.0	1.0
2	10	5	3	0	1	0	0	5	-1	2	0	1	0	0	0	2	2005.0	5.0	1.0
2	10	6	2	0	1	0	0	4	-1	2	0	1	0	0	0	2	2006.0	6.0	1.0
2	10	7	4	1	1	0	0	4	4	0	0	0	0	1	1	1	2007.0	5.0	0.0
2	10	8	4	1	1	0	0	4	4	1	1	0	0	1	0	2	2008.0	5.0	0.0
2	10	9	5	1	1	0	0	4	4	0	0	0	0	1	1	1	2009.0	7.0	0.0
2	10	10	5	1	1	0	0	4	4	1	1	0	0	1	0	2	2010.0	5.0	0.0
2	10	11	6	1	1	0	0	3	-1	2	0	1	0	0	0	2	2011.0	5.0	1.0
2	10	12	6	1	1	0	0	3	-1	0	0	1	0	0	0	1	2012.0	7.0	1.0
2	10	13	7	0	0	0	0	5	3	1	1	0	0	1	0	2	2013.0	7.0	0.0
2	10	14	8	0	0	0	0	4	3	1	1	0	0	1	0	2	2014.0	5.0	0.0
2	10	15	9	0	0	0	0	6	2	1	1	0	0	1	0	2	2015.0	4.0	0.0
2	10	16	7	0	0	0	0	5	3	0	0	0	0	1	0	1	2016.0	5.0	0.0
2	10	17	9	0	0	0	0	6	2	0	0	0	0	1	0	1	2017.0	9.0	0.0
2	10	18	8	0	0	0	0	4	3	0	0	0	0	1	0	1	2018.0	6.0	0.0
2	10	19	10	1	0	0	0	4	4	1	1	0	0	1	0	2	2019.0	7.0	0.0
2	10	20	11	1	0	0	0	5	5	0	0	0	0	1	1	1	2020.0	3.0	0.0
2	10	21	11	1	0	0	0	5	5	1	1	0	0	1	0	2	2021.0	7.0	0.0
2	10	22	10	1	0	0	0	4	4	0	0	0	0	1	1	1	2022.0	5.0	0.0
2	11	1	3	0	0	1	0	4	4	0	0	0	0	1	1	1	2001.0	7.0	0.0
2	11	2	10	0	0	0	0	4	2	0	0	0	0	1	0	1	2002.0	7.0	0.0
2	11	3	7	0	0	0	0	4	-1	2	0	1	0	0	0	2	2003.0	6.0	1.0
2	11	4	2	0	0	1	0	4	4	0	0	0	0	1	1	1	2004.0	4.0	0.0
2	11	5	2	0	0	1	0	4	4	1	1	0	0	1	0	2	2005.0	5.0	0.0
2	11	6	7	0	0	0	0	4	-1	0	0	1	0	0	0	1	2006.0	6.0	1.0
2	11	7	3	0	0	1	0	4	4	1	1	0	0	1	0	2	2007.0	5.0	0.0
2	11	8	8	0	0	0	0	-1	-1	0	0	1	0	0	0	1	2008.0	5.0	1.0
2	11	9	4	0	0	1	0	4	4	1	1	0	0	1	0	2	2009.0	7.0	0.0
2	11	10	10	0	0	0	0	4	2	1	1	0	0	1	0	2	2010.0	5.0	0.0
2	11	11	8	0	0	0	0	-1	-1	3	0	1	0	0	0	2	2011.0	5.0	1.0
2	11	12	9	0	0	0	0	4	2	0	0	0	1	0	0	1	2012.0	7.0	1.0
2	11	13	5	0	0	1	0	4	4	1	1	0	0	1	0	2	2013.0	7.0	0.0
2	11	14	11	0	0	0	0	3	-1	0	0	1	0	0	0	1	2014.0	5.0	1.0
2	11	15	1	0	0	1	0	3	-1	0	0	1	0	0	0	1	2015.0	4.0	1.0
2	11	16	6	0	0	1	0	3	-1	0	0	1	0	0	0	1	2016.0	5.0	1.0
2	11	17	5	0	0	1	0	4	4	0	0	0	0	1	1	1	2017.0	9.0	0.0
2	11	18	4	0	0	1	0	4	4	0	0	0	0	1	1	1	2018.0	6.0	0.0
2	11	19	9	0	0	0	0	4	2	1	2	0	1	0	0	2	2019.0	7.0	1.0
2	11	20	1	0	0	1	0	3	-1	2	0	1	0	0	0	2	2020.0	3.0	1.0
2	11	21	6	0	0	1	0	3	-1	2	0	1	0	0	0	2	2021.0	7.0	1.0
2	11	22	11	0	0	0	0	3	-1	2	0	1	0	0	0	2	2022.0	5.0	1.0
2	12	1	3	0	0	1	0	4	4	0	0	0	0	1	1	1	2001.0	7.0	0.0
2	12	2	10	0	0	0	0	4	2	0	0	0	1	0	0	1	2002.0	7.0	1.0
2	12	3	7	0	0	0	0	5	-1	0	0	1	0	0	0	1	2003.0	6.0	1.0
2	12	4	2	0	0	1	0	5	5	1	1	0	0	1	0	2	2004.0	4.0	0.0
2	12	5	1	0	0	1	0	4	4	1	1	0	0	1	0	2	2005.0	5.0	0.0
2	12	6	11	0	0	0	0	4	-1	1	3	0	1	0	0	2	2006.0	6.0	1.0
2	12	7	4	0	0	1	0	4	4	1	1	0	0	1	0	2	2007.0	5.0	0.0
2	12	8	8	0	0	0	0	4	-1	0	0	1	0	0	0	1	2008.0	5.0	1.0
2	12	9	4	0	0	1	0	4	4	0	0	0	0	1	1	1	2009.0	7.0	0.0
2	12	10	11	0	0	0	0	4	-1	0	0	0	1	0	0	1	2010.0	5.0	1.0
2	12	11	9	0	0	0	0	-1	-1	0	0	1	0	0	0	1	2011.0	5.0	1.0
2	12	12	9	0	0	0	0	-1	-1	3	0	1	0	0	0	2	2012.0	7.0	1.0
2	12	13	5	0	0	1	0	3	-1	0	0	1	0	0	0	1	2013.0	7.0	1.0
2	12	14	7	0	0	0	0	5	-1	2	0	1	0	0	0	2	2014.0	5.0	1.0
2	12	15	1	0	0	1	0	4	4	0	0	0	0	1	1	1	2015.0	4.0	0.0
2	12	16	6	0	0	1	0	4	4	0	0	0	0	1	1	1	2016.0	5.0	0.0
2	12	17	6	0	0	1	0	4	4	1	1	0	0	1	0	2	2017.0	9.0	0.0
2	12	18	3	0	0	1	0	4	4	1	1	0	0	1	0	2	2018.0	6.0	0.0
2	12	19	10	0	0	0	0	4	2	1	2	0	1	0	0	2	2019.0	7.0	1.0
2	12	20	2	0	0	1	0	5	5	0	0	0	0	1	1	1	2020.0	3.0	0.0
2	12	21	5	0	0	1	0	3	-1	2	0	1	0	0	0	2	2021.0	7.0	1.0
2	12	22	8	0	0	0	0	4	-1	2	0	1	0	0	0	2	2022.0	5.0	1.0
2	13	1	3	0	0	1	0	4	4	0	0	0	0	1	1	1	2001.0	7.0	0.0
2	13	2	10	0	0	0	0	-1	-1	0	0	1	0	0	0	1	2002.0	7.0	1.0
2	13	3	7	0	0	0	0	5	-1	0	0	1	0	0	0	1	2003.0	6.0	1.0
2	13	4	2	0	0	1	0	4	4	1	1	0	0	1	0	2	2004.0	4.0	0.0
2	13	5	4	0	0	1	0	4	4	1	1	0	0	1	0	2	2005.0	5.0	0.0
2	13	6	11	0	0	0	0	-1	-1	0	0	1	0	0	0	1	2006.0	6.0	1.0
2	13	7	5	0	0	1	0	4	4	1	1	0	0	1	0	2	2007.0	5.0	0.0
2	13	8	8	0	0	0	0	3	-1	2	0	1	0	0	0	2	2008.0	5.0	1.0
2	13	9	4	0	0	1	0	4	4	0	0	0	0	1	1	1	2009.0	7.0	0.0
2	13	10	7	0	0	0	0	5	-1	2	0	1	0	0	0	2	2010.0	5.0	1.0
2	13	11	10	0	0	0	0	-1	-1	3	0	1	0	0	0	2	2011.0	5.0	1.0
2	13	12	9	0	0	0	0	6	-1	2	0	1	0	0	0	2	2012.0	7.0	1.0
2	13	13	1	0	0	1	0	3	-1	0	0	1	0	0	0	1	2013.0	7.0	1.0
2	13	14	8	0	0	0	0	3	-1	0	0	1	0	0	0	1	2014.0	5.0	1.0
2	13	15	1	0	0	1	0	3	-1	2	0	1	0	0	0	2	2015.0	4.0	1.0
2	13	16	2	0	0	1	0	4	4	0	0	0	0	1	1	1	2016.0	5.0	0.0
2	13	17	5	0	0	1	0	4	4	0	0	0	0	1	1	1	2017.0	9.0	0.0
2	13	18	6	0	0	1	0	5	5	1	1	0	0	1	0	2	2018.0	6.0	0.0
2	13	19	11	0	0	0	0	-1	-1	3	0	1	0	0	0	2	2019.0	7.0	1.0
2	13	20	3	0	0	1	0	4	4	1	1	0	0	1	0	2	2020.0	3.0	0.0
2	13	21	6	0	0	1	0	5	5	0	0	0	0	1	1	1	2021.0	7.0	0.0
2	13	22	9	0	0	0	0	6	-1	0	0	1	0	0	0	1	2022.0	5.0	1.0
2	14	1	3	0	0	1	0	4	4	1	1	0	0	1	0	2	2001.0	7.0	0.0
2	14	2	10	0	0	0	0	4	-1	0	0	1	0	0	0	1	2002.0	7.0	1.0
2	14	3	7	0	0	0	0	5	-1	2	0	1	0	0	0	2	2003.0	6.0	1.0
2	14	4	2	0	0	1	0	4	4	0	0	0	0	1	1	1	2004.0	4.0	0.0
2	14	5	3	0	0	1	0	4	4	0	0	0	0	1	1	1	2005.0	5.0	0.0
2	14	6	9	0	0	0	0	4	2	1	1	0	0	1	0	2	2006.0	6.0	0.0
2	14	7	5	0	0	1	0	4	4	0	0	0	0	1	1	1	2007.0	5.0	0.0
2	14	8	8	0	0	0	0	-1	-1	0	0	1	0	0	0	1	2008.0	5.0	1.0
2	14	9	4	0	0	1	0	4	4	1	1	0	0	1	0	2	2009.0	7.0	0.0
2	14	10	8	0	0	0	0	-1	-1	3	0	1	0	0	0	2	2010.0	5.0	1.0
2	14	11	11	0	0	0	0	-1	-1	3	0	1	0	0	0	2	2011.0	5.0	1.0
2	14	12	9	0	0	0	0	4	2	0	0	0	0	1	0	1	2012.0	7.0	0.0
2	14	13	2	0	0	1	0	4	4	1	1	0	0	1	0	2	2013.0	7.0	0.0
2	14	14	10	0	0	0	0	4	-1	2	0	1	0	0	0	2	2014.0	5.0	1.0
2	14	15	1	0	0	1	0	4	4	0	0	0	0	1	1	1	2015.0	4.0	0.0
2	14	16	1	0	0	1	0	4	4	1	1	0	0	1	0	2	2016.0	5.0	0.0
2	14	17	6	0	0	1	0	4	4	1	1	0	0	1	0	2	2017.0	9.0	0.0
2	14	18	6	0	0	1	0	4	4	0	0	0	0	1	1	1	2018.0	6.0	0.0
2	14	19	7	0	0	0	0	5	-1	0	0	1	0	0	0	1	2019.0	7.0	1.0
2	14	20	4	0	0	1	0	4	4	0	0	0	0	1	1	1	2020.0	3.0	0.0
2	14	21	5	0	0	1	0	4	4	1	1	0	0	1	0	2	2021.0	7.0	0.0
2	14	22	11	0	0	0	0	-1	-1	0	0	1	0	0	0	1	2022.0	5.0	1.0
2	15	1	3	0	0	1	0	4	4	1	1	0	0	1	0	2	2001.0	7.0	0.0
2	15	2	10	0	0	0	0	2	-1	2	0	1	0	0	0	2	2002.0	7.0	1.0
2	15	3	7	0	0	0	0	-1	-1	0	0	1	0	0	0	1	2003.0	6.0	1.0
2	15	4	2	0	0	1	0	4	-1	0	0	1	0	0	0	1	2004.0	4.0	1.0
2	15	5	6	0	0	1	0	4	4	1	1	0	0	1	0	2	2005.0	5.0	0.0
2	15	6	10	0	0	0	0	2	-1	0	0	1	0	0	0	1	2006.0	6.0	1.0
2	15	7	5	0	0	1	0	4	4	0	0	0	0	1	1	1	2007.0	5.0	0.0
2	15	8	8	0	0	0	0	-1	-1	0	0	1	0	0	0	1	2008.0	5.0	1.0
2	15	9	4	0	0	1	0	4	4	1	1	0	0	1	0	2	2009.0	7.0	0.0
2	15	10	11	0	0	0	0	5	2	1	1	0	0	1	0	2	2010.0	5.0	0.0
2	15	11	11	0	0	0	0	5	2	0	0	0	0	1	0	1	2011.0	5.0	0.0
2	15	12	9	0	0	0	0	4	2	0	0	0	1	0	0	1	2012.0	7.0	1.0
2	15	13	3	0	0	1	0	4	4	0	0	0	0	1	1	1	2013.0	7.0	0.0
2	15	14	9	0	0	0	0	4	2	1	2	0	1	0	0	2	2014.0	5.0	1.0
2	15	15	1	0	0	1	0	4	4	0	0	0	0	1	1	1	2015.0	4.0	0.0
2	15	16	4	0	0	1	0	4	4	0	0	0	0	1	1	1	2016.0	5.0	0.0
2	15	17	1	0	0	1	0	4	4	1	1	0	0	1	0	2	2017.0	9.0	0.0
2	15	18	6	0	0	1	0	4	4	0	0	0	0	1	1	1	2018.0	6.0	0.0
2	15	19	8	0	0	0	0	-1	-1	3	0	1	0	0	0	2	2019.0	7.0	1.0
2	15	20	5	0	0	1	0	4	4	1	1	0	0	1	0	2	2020.0	3.0	0.0
2	15	21	2	0	0	1	0	4	-1	2	0	1	0	0	0	2	2021.0	7.0	1.0
2	15	22	7	0	0	0	0	-1	-1	3	0	1	0	0	0	2	2022.0	5.0	1.0
2	16	1	10	0	0	0	0	5	2	1	2	0	1	0	0	2	2001.0	7.0	1.0
2	16	2	6	0	0	0	1	4	2	0	0	0	0	1	0	1	2002.0	7.0	0.0
2	16	3	4	0	0	0	1	-1	-1	3	0	1	0	0	0	2	2003.0	6.0	1.0
2	16	4	8	0	0	0	0	4	-1	2	0	1	0	0	0	2	2004.0	4.0	1.0
2	16	5	1	0	0	0	1	4	4	0	0	0	0	1	0	1	2005.0	5.0	0.0
2	16	6	8	0	0	0	0	4	-1	0	0	1	0	0	0	1	2006.0	6.0	1.0
2	16	7	10	0	0	0	0	5	2	0	0	0	1	0	0	1	2007.0	5.0	1.0
2	16	8	11	0	0	0	0	-1	-1	0	0	1	0	0	0	1	2008.0	5.0	1.0
2	16	9	9	0	0	0	0	-1	-1	0	0	1	0	0	0	1	2009.0	7.0	1.0
2	16	10	9	0	0	0	0	-1	-1	3	0	1	0	0	0	2	2010.0	5.0	1.0
2	16	11	3	0	0	0	1	-1	-1	3	0	1	0	0	0	2	2011.0	5.0	1.0
2	16	12	7	0	0	0	0	4	2	0	0	0	1	0	0	1	2012.0	7.0	1.0
2	16	13	6	0	0	0	1	4	2	1	1	0	0	1	0	2	2013.0	7.0	0.0
2	16	14	7	0	0	0	0	4	2	1	2	0	1	0	0	2	2014.0	5.0	1.0
2	16	15	3	0	0	0	1	-1	-1	0	0	1	0	0	0	1	2015.0	4.0	1.0
2	16	16	4	0	0	0	1	-1	-1	0	0	1	0	0	0	1	2016.0	5.0	1.0
2	16	17	5	0	0	0	1	6	-1	0	0	1	0	0	0	1	2017.0	9.0	1.0
2	16	18	2	0	0	0	1	4	4	0	0	0	0	1	0	1	2018.0	6.0	0.0
2	16	19	1	0	0	0	1	4	4	1	1	0	0	1	0	2	2019.0	7.0	0.0
2	16	20	2	0	0	0	1	4	4	1	1	0	0	1	0	2	2020.0	3.0	0.0
2	16	21	5	0	0	0	1	6	-1	2	0	1	0	0	0	2	2021.0	7.0	1.0
2	16	22	11	0	0	0	0	-1	-1	3	0	1	0	0	0	2	2022.0	5.0	1.0
2	17	1	1	0	0	0	0	-1	-1	0	0	0	0	0	0	1	2001.0	7.0	0.0
2	17	2	8	0	0	0	0	-1	-1	0	0	0	0	0	0	2	2002.0	7.0	0.0
2	17	3	5	0	0	0	0	-1	-1	0	0	0	0	0	0	2	2003.0	6.0	0.0
2	17	4	6	0	0	0	0	-1	-1	0	0	0	0	0	0	1	2004.0	4.0	0.0
2	17	5	1	0	0	0	0	-1	-1	0	0	0	0	0	0	2	2005.0	5.0	0.0
2	17	6	2	0	0	0	0	-1	-1	0	0	0	0	0	0	1	2006.0	6.0	0.0
2	17	7	2	0	0	0	0	-1	-1	0	0	0	0	0	0	2	2007.0	5.0	0.0
2	17	8	4	0	0	0	0	-1	-1	0	0	0	0	0	0	1	2008.0	5.0	0.0
2	17	9	11	0	0	0	0	-1	-1	0	0	0	0	0	0	1	2009.0	7.0	0.0
2	17	10	6	0	0	0	0	-1	-1	0	0	0	0	0	0	2	2010.0	5.0	0.0
2	17	11	3	0	0	0	0	-1	-1	0	0	0	0	0	0	1	2011.0	5.0	0.0
2	17	12	7	0	0	0	0	-1	-1	0	0	0	0	0	0	2	2012.0	7.0	0.0
2	17	13	11	0	0	0	0	-1	-1	0	0	0	0	0	0	2	2013.0	7.0	0.0
2	17	14	9	0	0	0	0	-1	-1	0	0	0	0	0	0	1	2014.0	5.0	0.0
2	17	15	10	0	0	0	0	-1	-1	0	0	0	0	0	0	2	2015.0	4.0	0.0
2	17	16	10	0	0	0	0	-1	-1	0	0	0	0	0	0	1	2016.0	5.0	0.0
2	17	17	5	0	0	0	0	-1	-1	0	0	0	0	0	0	1	2017.0	9.0	0.0
2	17	18	7	0	0	0	0	-1	-1	0	0	0	0	0	0	1	2018.0	6.0	0.0
2	17	19	9	0	0	0	0	-1	-1	0	0	0	0	0	0	2	2019.0	7.0	0.0
2	17	20	4	0	0	0	0	-1	-1	0	0	0	0	0	0	2	2020.0	3.0	0.0
2	17	21	8	0	0	0	0	-1	-1	0	0	0	0	0	0	1	2021.0	7.0	0.0
2	17	22	3	0	0	0	0	-1	-1	0	0	0	0	0	0	2	2022.0	5.0	0.0
1	1	1	1	1	1	0	0	4	4	1	1	0	0	1	0	2	1001.0	3.0	0.0
1	1	2	1	1	1	0	0	4	4	0	0	0	0	1	1	1	1002.0	5.0	0.0
1	1	3	2	1	1	0	0	3	3	0	0	0	0	1	1	1	1003.0	5.0	0.0
1	1	4	2	1	1	0	0	3	3	1	1	0	0	1	0	2	1004.0	5.0	0.0
1	1	5	3	1	1	0	0	2	-1	2	0	1	0	0	0	2	1005.0	5.0	1.0
1	1	6	3	1	1	0	0	2	-1	0	0	1	0	0	0	1	1006.0	9.0	1.0
1	1	7	4	0	1	0	0	5	4	1	1	0	0	1	0	2	1007.0	6.0	0.0
1	1	8	5	0	1	0	0	4	-1	0	0	1	0	0	0	1	1008.0	5.0	1.0
1	1	9	5	0	1	0	0	4	-1	2	0	1	0	0	0	2	1009.0	4.0	1.0
1	1	10	6	0	1	0	0	4	4	0	0	0	0	1	0	1	1010.0	4.0	0.0
1	1	11	6	0	1	0	0	4	4	1	1	0	0	1	0	2	1011.0	3.0	0.0
1	1	12	4	0	1	0	0	5	4	0	0	0	0	1	0	1	1012.0	5.0	0.0
1	1	13	7	1	0	0	0	5	5	0	0	0	0	1	1	1	1013.0	6.0	0.0
1	1	14	7	1	0	0	0	5	5	1	1	0	0	1	0	2	1014.0	7.0	0.0
1	1	15	8	1	0	0	0	3	-1	2	0	1	0	0	0	2	1015.0	4.0	1.0
1	1	16	8	1	0	0	0	3	-1	0	0	1	0	0	0	1	1016.0	3.0	1.0
1	1	17	9	1	0	0	0	5	5	1	1	0	0	1	0	2	1017.0	7.0	0.0
1	1	18	9	1	0	0	0	5	5	0	0	0	0	1	1	1	1018.0	4.0	0.0
1	1	19	10	0	0	0	0	5	3	1	1	0	0	1	0	2	1019.0	5.0	0.0
1	1	20	11	0	0	0	0	4	-1	0	0	1	0	0	0	1	1020.0	5.0	1.0
1	1	21	11	0	0	0	0	4	-1	2	0	1	0	0	0	2	1021.0	5.0	1.0
1	1	22	12	0	0	0	0	3	3	0	0	0	0	1	0	1	1022.0	0.0	0.0
1	1	23	12	0	0	0	0	3	3	1	1	0	0	1	0	2	1023.0	9.0	0.0
1	1	24	10	0	0	0	0	5	3	0	0	0	0	1	0	1	1024.0	5.0	0.0
1	2	1	1	1	1	0	0	3	-1	2	0	1	0	0	0	2	1001.0	3.0	1.0
1	2	2	2	1	1	0	0	4	4	1	1	0	0	1	0	2	1002.0	5.0	0.0
1	2	3	1	1	1	0	0	3	-1	0	0	1	0	0	0	1	1003.0	5.0	1.0
1	2	4	3	1	1	0	0	4	4	1	1	0	0	1	0	2	1004.0	5.0	0.0
1	2	5	2	1	1	0	0	4	4	0	0	0	0	1	1	1	1005.0	5.0	0.0
1	2	6	3	1	1	0	0	4	4	0	0	0	0	1	1	1	1006.0	9.0	0.0
1	2	7	4	0	1	0	0	4	2	1	2	0	1	0	0	2	1007.0	6.0	1.0
1	2	8	5	0	1	0	0	5	3	1	1	0	0	1	0	2	1008.0	5.0	0.0
1	2	9	6	0	1	0	0	5	4	0	0	0	0	1	0	1	1009.0	4.0	0.0
1	2	10	4	0	1	0	0	4	2	0	0	0	1	0	0	1	1010.0	4.0	1.0
1	2	11	6	0	1	0	0	5	4	1	1	0	0	1	0	2	1011.0	3.0	0.0
1	2	12	5	0	1	0	0	5	3	0	0	0	0	1	0	1	1012.0	5.0	0.0
1	2	13	7	1	0	0	0	3	-1	2	0	1	0	0	0	2	1013.0	6.0	1.0
1	2	14	8	1	0	0	0	3	-1	0	0	1	0	0	0	1	1014.0	7.0	1.0
1	2	15	7	1	0	0	0	3	-1	0	0	1	0	0	0	1	1015.0	4.0	1.0
1	2	16	9	1	0	0	0	4	4	1	1	0	0	1	0	2	1016.0	3.0	0.0
1	2	17	8	1	0	0	0	3	-1	2	0	1	0	0	0	2	1017.0	7.0	1.0
1	2	18	9	1	0	0	0	4	4	0	0	0	0	1	1	1	1018.0	4.0	0.0
1	2	19	10	0	0	0	0	4	3	0	0	0	0	1	0	1	1019.0	5.0	0.0
1	2	20	11	0	0	0	0	5	4	0	0	0	0	1	0	1	1020.0	5.0	0.0
1	2	21	12	0	0	0	0	7	3	0	0	0	0	1	0	1	1021.0	5.0	0.0
1	2	22	10	0	0	0	0	4	3	1	1	0	0	1	0	2	1022.0	0.0	0.0
1	2	23	12	0	0	0	0	7	3	1	1	0	0	1	0	2	1023.0	9.0	0.0
1	2	24	11	0	0	0	0	5	4	1	1	0	0	1	0	2	1024.0	5.0	0.0
1	3	1	1	1	1	0	0	4	4	1	1	0	0	1	0	2	1001.0	3.0	0.0
1	3	2	2	1	1	0	0	3	3	0	0	0	0	1	1	1	1002.0	5.0	0.0
1	3	3	2	1	1	0	0	3	3	1	1	0	0	1	0	2	1003.0	5.0	0.0
1	3	4	3	1	1	0	0	2	-1	0	0	1	0	0	0	1	1004.0	5.0	1.0
1	3	5	3	1	1	0	0	2	-1	2	0	1	0	0	0	2	1005.0	5.0	1.0
1	3	6	1	1	1	0	0	4	4	0	0	0	0	1	1	1	1006.0	9.0	0.0
1	3	7	4	0	1	0	0	5	3	0	0	0	0	1	0	1	1007.0	6.0	0.0
1	3	8	5	0	1	0	0	5	3	1	1	0	0	1	0	2	1008.0	5.0	0.0
1	3	9	6	0	1	0	0	5	3	1	1	0	0	1	0	2	1009.0	4.0	0.0
1	3	10	5	0	1	0	0	5	3	0	0	0	0	1	0	1	1010.0	4.0	0.0
1	3	11	4	0	1	0	0	5	3	1	1	0	0	1	0	2	1011.0	3.0	0.0
1	3	12	6	0	1	0	0	5	3	0	0	0	0	1	0	1	1012.0	5.0	0.0
1	3	13	7	1	0	0	0	4	4	1	1	0	0	1	0	2	1013.0	6.0	0.0
1	3	14	8	1	0	0	0	3	-1	0	0	1	0	0	0	1	1014.0	7.0	1.0
1	3	15	8	1	0	0	0	3	-1	2	0	1	0	0	0	2	1015.0	4.0	1.0
1	3	16	9	1	0	0	0	4	4	0	0	0	0	1	1	1	1016.0	3.0	0.0
1	3	17	9	1	0	0	0	4	4	1	1	0	0	1	0	2	1017.0	7.0	0.0
1	3	18	7	1	0	0	0	4	4	0	0	0	0	1	1	1	1018.0	4.0	0.0
1	3	19	10	0	0	0	0	4	2	0	0	0	0	1	0	1	1019.0	5.0	0.0
1	3	20	11	0	0	0	0	5	2	1	1	0	0	1	0	2	1020.0	5.0	0.0
1	3	21	12	0	0	0	0	8	2	0	0	0	0	1	0	1	1021.0	5.0	0.0
1	3	22	11	0	0	0	0	5	2	0	0	0	0	1	0	1	1022.0	0.0	0.0
1	3	23	10	0	0	0	0	4	2	1	1	0	0	1	0	2	1023.0	9.0	0.0
1	3	24	12	0	0	0	0	8	2	1	1	0	0	1	0	2	1024.0	5.0	0.0
1	4	1	1	1	1	0	0	4	4	1	1	0	0	1	0	2	1001.0	3.0	0.0
1	4	2	2	1	1	0	0	4	4	1	1	0	0	1	0	2	1002.0	5.0	0.0
1	4	3	3	1	1	0	0	3	3	0	0	0	0	1	1	1	1003.0	5.0	0.0
1	4	4	1	1	1	0	0	4	4	0	0	0	0	1	1	1	1004.0	5.0	0.0
1	4	5	3	1	1	0	0	3	3	1	1	0	0	1	0	2	1005.0	5.0	0.0
1	4	6	2	1	1	0	0	4	4	0	0	0	0	1	1	1	1006.0	9.0	0.0
1	4	7	4	0	1	0	0	5	3	1	1	0	0	1	0	2	1007.0	6.0	0.0
1	4	8	4	0	1	0	0	5	3	0	0	0	0	1	0	1	1008.0	5.0	0.0
1	4	9	5	0	1	0	0	5	3	1	1	0	0	1	0	2	1009.0	4.0	0.0
1	4	10	5	0	1	0	0	5	3	0	0	0	0	1	0	1	1010.0	4.0	0.0
1	4	11	6	0	1	0	0	5	2	1	1	0	0	1	0	2	1011.0	3.0	0.0
1	4	12	6	0	1	0	0	5	2	0	0	0	0	1	0	1	1012.0	5.0	0.0
1	4	13	7	1	0	0	0	4	4	0	0	0	0	1	1	1	1013.0	6.0	0.0
1	4	14	8	1	0	0	0	4	4	1	1	0	0	1	0	2	1014.0	7.0	0.0
1	4	15	9	1	0	0	0	2	-1	0	0	1	0	0	0	1	1015.0	4.0	1.0
1	4	16	7	1	0	0	0	4	4	1	1	0	0	1	0	2	1016.0	3.0	0.0
1	4	17	9	1	0	0	0	2	-1	2	0	1	0	0	0	2	1017.0	7.0	1.0
1	4	18	8	1	0	0	0	4	4	0	0	0	0	1	1	1	1018.0	4.0	0.0
1	4	19	10	0	0	0	0	5	2	1	1	0	0	1	0	2	1019.0	5.0	0.0
1	4	20	10	0	0	0	0	5	2	0	0	0	0	1	0	1	1020.0	5.0	0.0
1	4	21	11	0	0	0	0	5	-1	2	0	1	0	0	0	2	1021.0	5.0	1.0
1	4	22	11	0	0	0	0	5	-1	0	0	1	0	0	0	1	1022.0	0.0	1.0
1	4	23	12	0	0	0	0	6	0	0	0	0	1	0	0	1	1023.0	9.0	1.0
1	4	24	12	0	0	0	0	6	0	1	2	0	1	0	0	2	1024.0	5.0	1.0
1	5	1	1	1	1	0	0	4	4	1	1	0	0	1	0	2	1001.0	3.0	0.0
1	5	2	2	1	1	0	0	3	-1	0	0	1	0	0	0	1	1002.0	5.0	1.0
1	5	3	3	1	1	0	0	4	4	1	1	0	0	1	0	2	1003.0	5.0	0.0
1	5	4	2	1	1	0	0	3	-1	2	0	1	0	0	0	2	1004.0	5.0	1.0
1	5	5	1	1	1	0	0	4	4	0	0	0	0	1	1	1	1005.0	5.0	0.0
1	5	6	3	1	1	0	0	4	4	0	0	0	0	1	1	1	1006.0	9.0	0.0
1	5	7	4	0	1	0	0	5	4	1	1	0	0	1	0	2	1007.0	6.0	0.0
1	5	8	5	0	1	0	0	5	2	1	1	0	0	1	0	2	1008.0	5.0	0.0
1	5	9	4	0	1	0	0	5	4	0	0	0	0	1	0	1	1009.0	4.0	0.0
1	5	10	6	0	1	0	0	5	2	1	1	0	0	1	0	2	1010.0	4.0	0.0
1	5	11	5	0	1	0	0	5	2	0	0	0	0	1	0	1	1011.0	3.0	0.0
1	5	12	6	0	1	0	0	5	2	0	0	0	0	1	0	1	1012.0	5.0	0.0
1	5	13	7	1	0	0	0	4	4	0	0	0	0	1	1	1	1013.0	6.0	0.0
1	5	14	8	1	0	0	0	5	5	1	1	0	0	1	0	2	1014.0	7.0	0.0
1	5	15	9	1	0	0	0	4	4	1	1	0	0	1	0	2	1015.0	4.0	0.0
1	5	16	8	1	0	0	0	5	5	0	0	0	0	1	1	1	1016.0	3.0	0.0
1	5	17	7	1	0	0	0	4	4	1	1	0	0	1	0	2	1017.0	7.0	0.0
1	5	18	9	1	0	0	0	4	4	0	0	0	0	1	1	1	1018.0	4.0	0.0
1	5	19	10	0	0	0	0	4	-1	0	0	1	0	0	0	1	1019.0	5.0	1.0
1	5	20	11	0	0	0	0	5	2	0	0	0	0	1	0	1	1020.0	5.0	0.0
1	5	21	10	0	0	0	0	4	-1	2	0	1	0	0	0	2	1021.0	5.0	1.0
1	5	22	12	0	0	0	0	4	-1	2	0	1	0	0	0	2	1022.0	0.0	1.0
1	5	23	11	0	0	0	0	5	2	1	1	0	0	1	0	2	1023.0	9.0	0.0
1	5	24	12	0	0	0	0	4	-1	0	0	1	0	0	0	1	1024.0	5.0	1.0
1	6	1	1	0	1	0	0	5	3	0	0	0	0	1	0	1	1001.0	3.0	0.0
1	6	2	2	0	1	0	0	4	2	1	2	0	1	0	0	2	1002.0	5.0	1.0
1	6	3	3	0	1	0	0	4	-1	0	0	1	0	0	0	1	1003.0	5.0	1.0
1	6	4	2	0	1	0	0	4	2	0	0	0	1	0	0	1	1004.0	5.0	1.0
1	6	5	1	0	1	0	0	5	3	1	1	0	0	1	0	2	1005.0	5.0	0.0
1	6	6	3	0	1	0	0	4	-1	2	0	1	0	0	0	2	1006.0	9.0	1.0
1	6	7	4	1	1	0	0	4	4	1	1	0	0	1	0	2	1007.0	6.0	0.0
1	6	8	5	1	1	0	0	4	4	0	0	0	0	1	1	1	1008.0	5.0	0.0
1	6	9	4	1	1	0	0	4	4	0	0	0	0	1	1	1	1009.0	4.0	0.0
1	6	10	6	1	1	0	0	4	4	0	0	0	0	1	1	1	1010.0	4.0	0.0
1	6	11	5	1	1	0	0	4	4	1	1	0	0	1	0	2	1011.0	3.0	0.0
1	6	12	6	1	1	0	0	4	4	1	1	0	0	1	0	2	1012.0	5.0	0.0
1	6	13	7	0	0	0	0	5	-1	2	0	1	0	0	0	2	1013.0	6.0	1.0
1	6	14	8	0	0	0	0	4	4	1	1	0	0	1	0	2	1014.0	7.0	0.0
1	6	15	9	0	0	0	0	4	-1	0	0	1	0	0	0	1	1015.0	4.0	1.0
1	6	16	8	0	0	0	0	4	4	0	0	0	0	1	0	1	1016.0	3.0	0.0
1	6	17	7	0	0	0	0	5	-1	0	0	1	0	0	0	1	1017.0	7.0	1.0
1	6	18	9	0	0	0	0	4	-1	2	0	1	0	0	0	2	1018.0	4.0	1.0
1	6	19	10	1	0	0	0	4	4	1	1	0	0	1	0	2	1019.0	5.0	0.0
1	6	20	11	1	0	0	0	3	-1	0	0	1	0	0	0	1	1020.0	5.0	1.0
1	6	21	10	1	0	0	0	4	4	0	0	0	0	1	1	1	1021.0	5.0	0.0
1	6	22	12	1	0	0	0	4	4	0	0	0	0	1	1	1	1022.0	0.0	0.0
1	6	23	11	1	0	0	0	3	-1	2	0	1	0	0	0	2	1023.0	9.0	1.0
1	6	24	12	1	0	0	0	4	4	1	1	0	0	1	0	2	1024.0	5.0	0.0
1	7	1	1	0	1	0	0	5	2	0	0	0	0	1	0	1	1001.0	3.0	0.0
1	7	2	1	0	1	0	0	5	2	1	1	0	0	1	0	2	1002.0	5.0	0.0
1	7	3	2	0	1	0	0	4	-1	2	0	1	0	0	0	2	1003.0	5.0	1.0
1	7	4	2	0	1	0	0	4	-1	0	0	1	0	0	0	1	1004.0	5.0	1.0
1	7	5	3	0	1	0	0	5	-1	0	0	1	0	0	0	1	1005.0	5.0	1.0
1	7	6	3	0	1	0	0	5	-1	2	0	1	0	0	0	2	1006.0	9.0	1.0
1	7	7	4	1	1	0	0	4	4	0	0	0	0	1	1	1	1007.0	6.0	0.0
1	7	8	5	1	1	0	0	4	4	0	0	0	0	1	1	1	1008.0	5.0	0.0
1	7	9	5	1	1	0	0	4	4	1	1	0	0	1	0	2	1009.0	4.0	0.0
1	7	10	6	1	1	0	0	3	-1	2	0	1	0	0	0	2	1010.0	4.0	1.0
1	7	11	6	1	1	0	0	3	-1	0	0	1	0	0	0	1	1011.0	3.0	1.0
1	7	12	4	1	1	0	0	4	4	1	1	0	0	1	0	2	1012.0	5.0	0.0
1	7	13	7	0	0	0	0	4	3	0	0	0	0	1	0	1	1013.0	6.0	0.0
1	7	14	7	0	0	0	0	4	3	1	1	0	0	1	0	2	1014.0	7.0	0.0
1	7	15	8	0	0	0	0	3	-1	0	0	1	0	0	0	1	1015.0	4.0	1.0
1	7	16	8	0	0	0	0	3	-1	2	0	1	0	0	0	2	1016.0	3.0	1.0
1	7	17	9	0	0	0	0	5	-1	0	0	1	0	0	0	1	1017.0	7.0	1.0
1	7	18	9	0	0	0	0	5	-1	2	0	1	0	0	0	2	1018.0	4.0	1.0
1	7	19	10	1	0	0	0	4	4	0	0	0	0	1	1	1	1019.0	5.0	0.0
1	7	20	11	1	0	0	0	4	4	0	0	0	0	1	1	1	1020.0	5.0	0.0
1	7	21	11	1	0	0	0	4	4	1	1	0	0	1	0	2	1021.0	5.0	0.0
1	7	22	12	1	0	0	0	3	-1	2	0	1	0	0	0	2	1022.0	0.0	1.0
1	7	23	12	1	0	0	0	3	-1	0	0	1	0	0	0	1	1023.0	9.0	1.0
1	7	24	10	1	0	0	0	4	4	1	1	0	0	1	0	2	1024.0	5.0	0.0
1	8	1	1	0	1	0	0	5	-1	0	0	1	0	0	0	1	1001.0	3.0	1.0
1	8	2	2	0	1	0	0	4	-1	0	0	1	0	0	0	1	1002.0	5.0	1.0
1	8	3	1	0	1	0	0	5	-1	2	0	1	0	0	0	2	1003.0	5.0	1.0
1	8	4	3	0	1	0	0	5	-1	0	0	1	0	0	0	1	1004.0	5.0	1.0
1	8	5	2	0	1	0	0	4	-1	2	0	1	0	0	0	2	1005.0	5.0	1.0
1	8	6	3	0	1	0	0	5	-1	2	0	1	0	0	0	2	1006.0	9.0	1.0
1	8	7	4	1	1	0	0	4	4	0	0	0	0	1	1	1	1007.0	6.0	0.0
1	8	8	5	1	1	0	0	4	4	0	0	0	0	1	1	1	1008.0	5.0	0.0
1	8	9	6	1	1	0	0	4	4	1	1	0	0	1	0	2	1009.0	4.0	0.0
1	8	10	4	1	1	0	0	4	4	1	1	0	0	1	0	2	1010.0	4.0	0.0
1	8	11	6	1	1	0	0	4	4	0	0	0	0	1	1	1	1011.0	3.0	0.0
1	8	12	5	1	1	0	0	4	4	1	1	0	0	1	0	2	1012.0	5.0	0.0
1	8	13	7	0	0	0	0	8	-1	2	0	1	0	0	0	2	1013.0	6.0	1.0
1	8	14	8	0	0	0	0	5	4	1	1	0	0	1	0	2	1014.0	7.0	0.0
1	8	15	7	0	0	0	0	8	-1	0	0	1	0	0	0	1	1015.0	4.0	1.0
1	8	16	9	0	0	0	0	4	-1	0	0	1	0	0	0	1	1016.0	3.0	1.0
1	8	17	8	0	0	0	0	5	4	0	0	0	0	1	0	1	1017.0	7.0	0.0
1	8	18	9	0	0	0	0	4	-1	2	0	1	0	0	0	2	1018.0	4.0	1.0
1	8	19	10	1	0	0	0	4	4	0	0	0	0	1	1	1	1019.0	5.0	0.0
1	8	20	11	1	0	0	0	4	4	1	1	0	0	1	0	2	1020.0	5.0	0.0
1	8	21	12	1	0	0	0	4	4	1	1	0	0	1	0	2	1021.0	5.0	0.0
1	8	22	10	1	0	0	0	4	4	1	1	0	0	1	0	2	1022.0	0.0	0.0
1	8	23	12	1	0	0	0	4	4	0	0	0	0	1	1	1	1023.0	9.0	0.0
1	8	24	11	1	0	0	0	4	4	0	0	0	0	1	1	1	1024.0	5.0	0.0
1	9	1	1	0	1	0	0	5	-1	0	0	1	0	0	0	1	1001.0	3.0	1.0
1	9	2	2	0	1	0	0	5	3	1	1	0	0	1	0	2	1002.0	5.0	0.0
1	9	3	2	0	1	0	0	5	3	0	0	0	0	1	0	1	1003.0	5.0	0.0
1	9	4	3	0	1	0	0	5	-1	2	0	1	0	0	0	2	1004.0	5.0	1.0
1	9	5	3	0	1	0	0	5	-1	0	0	1	0	0	0	1	1005.0	5.0	1.0
1	9	6	1	0	1	0	0	5	-1	2	0	1	0	0	0	2	1006.0	9.0	1.0
1	9	7	4	1	1	0	0	4	4	1	1	0	0	1	0	2	1007.0	6.0	0.0
1	9	8	5	1	1	0	0	4	4	1	1	0	0	1	0	2	1008.0	5.0	0.0
1	9	9	6	1	1	0	0	4	4	1	1	0	0	1	0	2	1009.0	4.0	0.0
1	9	10	5	1	1	0	0	4	4	0	0	0	0	1	1	1	1010.0	4.0	0.0
1	9	11	4	1	1	0	0	4	4	0	0	0	0	1	1	1	1011.0	3.0	0.0
1	9	12	6	1	1	0	0	4	4	0	0	0	0	1	1	1	1012.0	5.0	0.0
1	9	13	7	0	0	0	0	4	-1	0	0	1	0	0	0	1	1013.0	6.0	1.0
1	9	14	8	0	0	0	0	4	-1	0	0	1	0	0	0	1	1014.0	7.0	1.0
1	9	15	8	0	0	0	0	4	-1	2	0	1	0	0	0	2	1015.0	4.0	1.0
1	9	16	9	0	0	0	0	5	-1	0	0	1	0	0	0	1	1016.0	3.0	1.0
1	9	17	9	0	0	0	0	5	-1	2	0	1	0	0	0	2	1017.0	7.0	1.0
1	9	18	7	0	0	0	0	4	-1	2	0	1	0	0	0	2	1018.0	4.0	1.0
1	9	19	10	1	0	0	0	4	4	1	1	0	0	1	0	2	1019.0	5.0	0.0
1	9	20	11	1	0	0	0	3	-1	0	0	1	0	0	0	1	1020.0	5.0	1.0
1	9	21	12	1	0	0	0	4	4	1	1	0	0	1	0	2	1021.0	5.0	0.0
1	9	22	11	1	0	0	0	3	-1	2	0	1	0	0	0	2	1022.0	0.0	1.0
1	9	23	10	1	0	0	0	4	4	0	0	0	0	1	1	1	1023.0	9.0	0.0
1	9	24	12	1	0	0	0	4	4	0	0	0	0	1	1	1	1024.0	5.0	0.0
1	10	1	1	0	1	0	0	10	-1	2	0	1	0	0	0	2	1001.0	3.0	1.0
1	10	2	2	0	1	0	0	5	-1	0	0	1	0	0	0	1	1002.0	5.0	1.0
1	10	3	3	0	1	0	0	5	3	0	0	0	0	1	0	1	1003.0	5.0	0.0
1	10	4	1	0	1	0	0	10	-1	0	0	1	0	0	0	1	1004.0	5.0	1.0
1	10	5	3	0	1	0	0	5	3	1	1	0	0	1	0	2	1005.0	5.0	0.0
1	10	6	2	0	1	0	0	5	-1	2	0	1	0	0	0	2	1006.0	9.0	1.0
1	10	7	4	1	1	0	0	4	4	0	0	0	0	1	1	1	1007.0	6.0	0.0
1	10	8	4	1	1	0	0	4	4	1	1	0	0	1	0	2	1008.0	5.0	0.0
1	10	9	5	1	1	0	0	4	4	0	0	0	0	1	1	1	1009.0	4.0	0.0
1	10	10	5	1	1	0	0	4	4	1	1	0	0	1	0	2	1010.0	4.0	0.0
1	10	11	6	1	1	0	0	4	-1	0	0	1	0	0	0	1	1011.0	3.0	1.0
1	10	12	6	1	1	0	0	4	-1	2	0	1	0	0	0	2	1012.0	5.0	1.0
1	10	13	7	0	0	0	0	5	-1	0	0	1	0	0	0	1	1013.0	6.0	1.0
1	10	14	8	0	0	0	0	4	-1	0	0	1	0	0	0	1	1014.0	7.0	1.0
1	10	15	9	0	0	0	0	5	4	1	1	0	0	1	0	2	1015.0	4.0	0.0
1	10	16	7	0	0	0	0	5	-1	2	0	1	0	0	0	2	1016.0	3.0	1.0
1	10	17	9	0	0	0	0	5	4	0	0	0	0	1	0	1	1017.0	7.0	0.0
1	10	18	8	0	0	0	0	4	-1	2	0	1	0	0	0	2	1018.0	4.0	1.0
1	10	19	10	1	0	0	0	4	4	1	1	0	0	1	0	2	1019.0	5.0	0.0
1	10	20	10	1	0	0	0	4	4	0	0	0	0	1	1	1	1020.0	5.0	0.0
1	10	21	11	1	0	0	0	4	4	1	1	0	0	1	0	2	1021.0	5.0	0.0
1	10	22	11	1	0	0	0	4	4	0	0	0	0	1	1	1	1022.0	0.0	0.0
1	10	23	12	1	0	0	0	4	4	0	0	0	0	1	1	1	1023.0	9.0	0.0
1	10	24	12	1	0	0	0	4	4	1	1	0	0	1	0	2	1024.0	5.0	0.0
1	11	1	8	0	0	0	0	5	-1	0	0	1	0	0	0	1	1001.0	3.0	1.0
1	11	2	3	0	0	1	0	4	4	0	0	0	0	1	1	1	1002.0	5.0	0.0
1	11	3	11	0	0	0	0	-1	-1	3	0	1	0	0	0	2	1003.0	5.0	1.0
1	11	4	1	0	0	1	0	4	4	0	0	0	0	1	1	1	1004.0	5.0	0.0
1	11	5	4	0	0	1	0	4	4	0	0	0	0	1	1	1	1005.0	5.0	0.0
1	11	6	11	0	0	0	0	-1	-1	0	0	1	0	0	0	1	1006.0	9.0	1.0
1	11	7	2	0	0	1	0	4	4	0	0	0	0	1	1	1	1007.0	6.0	0.0
1	11	8	4	0	0	1	0	4	4	1	1	0	0	1	0	2	1008.0	5.0	0.0
1	11	9	10	0	0	0	0	5	3	0	0	0	0	1	0	1	1009.0	4.0	0.0
1	11	10	5	0	0	1	0	4	4	1	1	0	0	1	0	2	1010.0	4.0	0.0
1	11	11	6	0	0	1	0	4	4	0	0	0	0	1	1	1	1011.0	3.0	0.0
1	11	12	12	0	0	0	0	5	2	0	0	0	1	0	0	1	1012.0	5.0	1.0
1	11	13	12	0	0	0	0	5	2	1	2	0	1	0	0	2	1013.0	6.0	1.0
1	11	14	7	0	0	0	0	4	4	0	0	0	0	1	0	1	1014.0	7.0	0.0
1	11	15	1	0	0	1	0	4	4	1	1	0	0	1	0	2	1015.0	4.0	0.0
1	11	16	9	0	0	0	0	5	-1	2	0	1	0	0	0	2	1016.0	3.0	1.0
1	11	17	3	0	0	1	0	4	4	1	1	0	0	1	0	2	1017.0	7.0	0.0
1	11	18	6	0	0	1	0	4	4	1	1	0	0	1	0	2	1018.0	4.0	0.0
1	11	19	9	0	0	0	0	5	-1	0	0	1	0	0	0	1	1019.0	5.0	1.0
1	11	20	7	0	0	0	0	4	4	1	1	0	0	1	0	2	1020.0	5.0	0.0
1	11	21	2	0	0	1	0	4	4	1	1	0	0	1	0	2	1021.0	5.0	0.0
1	11	22	5	0	0	1	0	4	4	0	0	0	0	1	1	1	1022.0	0.0	0.0
1	11	23	8	0	0	0	0	5	-1	2	0	1	0	0	0	2	1023.0	9.0	1.0
1	11	24	10	0	0	0	0	5	3	1	1	0	0	1	0	2	1024.0	5.0	0.0
1	12	1	8	0	0	0	0	5	-1	0	0	1	0	0	0	1	1001.0	3.0	1.0
1	12	2	5	0	0	1	0	4	4	0	0	0	0	1	1	1	1002.0	5.0	0.0
1	12	3	11	0	0	0	0	5	4	1	1	0	0	1	0	2	1003.0	5.0	0.0
1	12	4	1	0	0	1	0	4	4	1	1	0	0	1	0	2	1004.0	5.0	0.0
1	12	5	2	0	0	1	0	4	4	1	1	0	0	1	0	2	1005.0	5.0	0.0
1	12	6	12	0	0	0	0	6	-1	0	0	1	0	0	0	1	1006.0	9.0	1.0
1	12	7	3	0	0	1	0	4	4	1	1	0	0	1	0	2	1007.0	6.0	0.0
1	12	8	1	0	0	1	0	4	4	0	0	0	0	1	1	1	1008.0	5.0	0.0
1	12	9	10	0	0	0	0	5	-1	0	0	1	0	0	0	1	1009.0	4.0	1.0
1	12	10	6	0	0	1	0	4	4	0	0	0	0	1	1	1	1010.0	4.0	0.0
1	12	11	4	0	0	1	0	4	4	1	1	0	0	1	0	2	1011.0	3.0	0.0
1	12	12	12	0	0	0	0	6	-1	2	0	1	0	0	0	2	1012.0	5.0	1.0
1	12	13	11	0	0	0	0	5	4	0	0	0	0	1	0	1	1013.0	6.0	0.0
1	12	14	7	0	0	0	0	6	2	1	1	0	0	1	0	2	1014.0	7.0	0.0
1	12	15	2	0	0	1	0	4	4	0	0	0	0	1	1	1	1015.0	4.0	0.0
1	12	16	9	0	0	0	0	5	-1	2	0	1	0	0	0	2	1016.0	3.0	1.0
1	12	17	6	0	0	1	0	4	4	1	1	0	0	1	0	2	1017.0	7.0	0.0
1	12	18	3	0	0	1	0	4	4	0	0	0	0	1	1	1	1018.0	4.0	0.0
1	12	19	10	0	0	0	0	5	-1	2	0	1	0	0	0	2	1019.0	5.0	1.0
1	12	20	8	0	0	0	0	5	-1	2	0	1	0	0	0	2	1020.0	5.0	1.0
1	12	21	4	0	0	1	0	4	4	0	0	0	0	1	1	1	1021.0	5.0	0.0
1	12	22	5	0	0	1	0	4	4	1	1	0	0	1	0	2	1022.0	0.0	0.0
1	12	23	7	0	0	0	0	6	2	0	0	0	0	1	0	1	1023.0	9.0	0.0
1	12	24	9	0	0	0	0	5	-1	0	0	1	0	0	0	1	1024.0	5.0	1.0
1	13	1	9	0	0	0	0	4	-1	0	0	1	0	0	0	1	1001.0	3.0	1.0
1	13	2	4	0	0	1	0	4	4	0	0	0	0	1	1	1	1002.0	5.0	0.0
1	13	3	12	0	0	0	0	5	4	0	0	0	0	1	0	1	1003.0	5.0	0.0
1	13	4	1	0	0	1	0	4	4	0	0	0	0	1	1	1	1004.0	5.0	0.0
1	13	5	5	0	0	1	0	4	4	1	1	0	0	1	0	2	1005.0	5.0	0.0
1	13	6	11	0	0	0	0	10	-1	0	0	1	0	0	0	1	1006.0	9.0	1.0
1	13	7	3	0	0	1	0	4	4	0	0	0	0	1	1	1	1007.0	6.0	0.0
1	13	8	6	0	0	1	0	4	4	0	0	0	0	1	1	1	1008.0	5.0	0.0
1	13	9	11	0	0	0	0	10	-1	2	0	1	0	0	0	2	1009.0	4.0	1.0
1	13	10	6	0	0	1	0	4	4	1	1	0	0	1	0	2	1010.0	4.0	0.0
1	13	11	2	0	0	1	0	4	4	0	0	0	0	1	1	1	1011.0	3.0	0.0
1	13	12	8	0	0	0	0	4	3	0	0	0	0	1	0	1	1012.0	5.0	0.0
1	13	13	7	0	0	0	0	3	-1	2	0	1	0	0	0	2	1013.0	6.0	1.0
1	13	14	7	0	0	0	0	3	-1	0	0	1	0	0	0	1	1014.0	7.0	1.0
1	13	15	2	0	0	1	0	4	4	1	1	0	0	1	0	2	1015.0	4.0	0.0
1	13	16	10	0	0	0	0	6	-1	2	0	1	0	0	0	2	1016.0	3.0	1.0
1	13	17	3	0	0	1	0	4	4	1	1	0	0	1	0	2	1017.0	7.0	0.0
1	13	18	1	0	0	1	0	4	4	1	1	0	0	1	0	2	1018.0	4.0	0.0
1	13	19	9	0	0	0	0	4	-1	2	0	1	0	0	0	2	1019.0	5.0	1.0
1	13	20	8	0	0	0	0	4	3	1	1	0	0	1	0	2	1020.0	5.0	0.0
1	13	21	4	0	0	1	0	4	4	1	1	0	0	1	0	2	1021.0	5.0	0.0
1	13	22	5	0	0	1	0	4	4	0	0	0	0	1	1	1	1022.0	0.0	0.0
1	13	23	10	0	0	0	0	6	-1	0	0	1	0	0	0	1	1023.0	9.0	1.0
1	13	24	12	0	0	0	0	5	4	1	1	0	0	1	0	2	1024.0	5.0	0.0
1	16	1	10	0	0	0	0	8	-1	2	0	1	0	0	0	2	1001.0	3.0	1.0
1	16	2	2	0	0	0	1	6	2	1	1	0	0	1	0	2	1002.0	5.0	0.0
1	16	3	6	0	0	0	1	5	3	1	1	0	0	1	0	2	1003.0	5.0	0.0
1	16	4	8	0	0	0	0	-1	-1	3	0	1	0	0	0	2	1004.0	5.0	1.0
1	16	5	7	0	0	0	0	5	3	0	0	0	0	1	0	1	1005.0	5.0	0.0
1	16	6	9	0	0	0	0	4	2	0	0	0	1	0	0	1	1006.0	9.0	1.0
1	16	7	9	0	0	0	0	4	2	1	2	0	1	0	0	2	1007.0	6.0	1.0
1	16	8	7	0	0	0	0	5	3	1	1	0	0	1	0	2	1008.0	5.0	0.0
1	16	9	12	0	0	0	0	-1	-1	3	0	1	0	0	0	2	1009.0	4.0	1.0
1	16	10	11	0	0	0	0	5	-1	0	0	1	0	0	0	1	1010.0	4.0	1.0
1	16	11	5	0	0	0	1	5	2	1	1	0	0	1	0	2	1011.0	3.0	0.0
1	16	12	1	0	0	0	1	4	4	1	1	0	0	1	0	2	1012.0	5.0	0.0
1	16	13	11	0	0	0	0	5	-1	2	0	1	0	0	0	2	1013.0	6.0	1.0
1	16	14	1	0	0	0	1	4	4	0	0	0	0	1	0	1	1014.0	7.0	0.0
1	16	15	4	0	0	0	1	4	2	1	2	0	1	0	0	2	1015.0	4.0	1.0
1	16	16	12	0	0	0	0	-1	-1	0	0	1	0	0	0	1	1016.0	3.0	1.0
1	16	17	5	0	0	0	1	5	2	0	0	0	0	1	0	1	1017.0	7.0	0.0
1	16	18	4	0	0	0	1	4	2	0	0	0	1	0	0	1	1018.0	4.0	1.0
1	16	19	2	0	0	0	1	6	2	0	0	0	0	1	0	1	1019.0	5.0	0.0
1	16	20	3	0	0	0	1	-1	-1	0	0	1	0	0	0	1	1020.0	5.0	1.0
1	16	21	10	0	0	0	0	8	-1	0	0	1	0	0	0	1	1021.0	5.0	1.0
1	16	22	8	0	0	0	0	-1	-1	0	0	1	0	0	0	1	1022.0	0.0	1.0
1	16	23	3	0	0	0	1	-1	-1	3	0	1	0	0	0	2	1023.0	9.0	1.0
1	16	24	6	0	0	0	1	5	3	0	0	0	0	1	0	1	1024.0	5.0	0.0
1	20	1	10	0	0	0	0	5	-1	0	0	1	0	0	0	1	1001.0	3.0	1.0
1	20	2	3	0	0	0	1	5	3	1	1	0	0	1	0	2	1002.0	5.0	0.0
1	20	3	4	0	0	0	1	6	-1	1	3	0	1	0	0	2	1003.0	5.0	1.0
1	20	4	8	0	0	0	0	5	3	1	1	0	0	1	0	2	1004.0	5.0	0.0
1	20	5	7	0	0	0	0	-1	-1	0	0	1	0	0	0	1	1005.0	5.0	1.0
1	20	6	9	0	0	0	0	5	-1	2	0	1	0	0	0	2	1006.0	9.0	1.0
1	20	7	10	0	0	0	0	5	-1	2	0	1	0	0	0	2	1007.0	6.0	1.0
1	20	8	8	0	0	0	0	5	3	0	0	0	0	1	0	1	1008.0	5.0	0.0
1	20	9	12	0	0	0	0	5	4	1	1	0	0	1	0	2	1009.0	4.0	0.0
1	20	10	11	0	0	0	0	5	3	0	0	0	0	1	0	1	1010.0	4.0	0.0
1	20	11	6	0	0	0	1	-1	-1	0	0	1	0	0	0	1	1011.0	3.0	1.0
1	20	12	1	0	0	0	1	-1	-1	3	0	1	0	0	0	2	1012.0	5.0	1.0
1	20	13	12	0	0	0	0	5	4	0	0	0	0	1	0	1	1013.0	6.0	0.0
1	20	14	2	0	0	0	1	4	4	0	0	0	0	1	0	1	1014.0	7.0	0.0
1	20	15	2	0	0	0	1	4	4	1	1	0	0	1	0	2	1015.0	4.0	0.0
1	20	16	11	0	0	0	0	5	3	1	1	0	0	1	0	2	1016.0	3.0	0.0
1	20	17	5	0	0	0	1	4	3	1	2	0	1	0	0	2	1017.0	7.0	1.0
1	20	18	1	0	0	0	1	-1	-1	0	0	1	0	0	0	1	1018.0	4.0	1.0
1	20	19	4	0	0	0	1	6	-1	0	0	0	1	0	0	1	1019.0	5.0	1.0
1	20	20	5	0	0	0	1	4	3	0	0	0	1	0	0	1	1020.0	5.0	1.0
1	20	21	9	0	0	0	0	5	-1	0	0	1	0	0	0	1	1021.0	5.0	1.0
1	20	22	7	0	0	0	0	-1	-1	3	0	1	0	0	0	2	1022.0	0.0	1.0
1	20	23	6	0	0	0	1	-1	-1	3	0	1	0	0	0	2	1023.0	9.0	1.0
1	20	24	3	0	0	0	1	5	3	0	0	0	0	1	0	1	1024.0	5.0	0.0
1	21	1	7	0	0	0	0	5	-1	2	0	1	0	0	0	2	1001.0	3.0	1.0
1	21	2	3	0	0	0	1	6	2	0	0	0	0	1	0	1	1002.0	5.0	0.0
1	21	3	5	0	0	0	1	4	3	0	0	0	1	0	0	1	1003.0	5.0	1.0
1	21	4	9	0	0	0	0	4	4	0	0	0	0	1	0	1	1004.0	5.0	0.0
1	21	5	7	0	0	0	0	5	-1	0	0	1	0	0	0	1	1005.0	5.0	1.0
1	21	6	11	0	0	0	0	4	4	0	0	0	0	1	0	1	1006.0	9.0	0.0
1	21	7	12	0	0	0	0	4	2	0	0	0	1	0	0	1	1007.0	6.0	1.0
1	21	8	8	0	0	0	0	4	-1	0	0	1	0	0	0	1	1008.0	5.0	1.0
1	21	9	9	0	0	0	0	4	4	1	1	0	0	1	0	2	1009.0	4.0	0.0
1	21	10	11	0	0	0	0	4	4	1	1	0	0	1	0	2	1010.0	4.0	0.0
1	21	11	3	0	0	0	1	6	2	1	1	0	0	1	0	2	1011.0	3.0	0.0
1	21	12	1	0	0	0	1	4	4	0	0	0	0	1	0	1	1012.0	5.0	0.0
1	21	13	12	0	0	0	0	4	2	1	2	0	1	0	0	2	1013.0	6.0	1.0
1	21	14	2	0	0	0	1	6	-1	1	3	0	1	0	0	2	1014.0	7.0	1.0
1	21	15	5	0	0	0	1	4	3	1	2	0	1	0	0	2	1015.0	4.0	1.0
1	21	16	10	0	0	0	0	5	3	0	0	0	1	0	0	1	1016.0	3.0	1.0
1	21	17	4	0	0	0	1	-1	-1	3	0	1	0	0	0	2	1017.0	7.0	1.0
1	21	18	6	0	0	0	1	5	3	1	1	0	0	1	0	2	1018.0	4.0	0.0
1	21	19	4	0	0	0	1	-1	-1	0	0	1	0	0	0	1	1019.0	5.0	1.0
1	21	20	1	0	0	0	1	4	4	1	1	0	0	1	0	2	1020.0	5.0	0.0
1	21	21	8	0	0	0	0	4	-1	2	0	1	0	0	0	2	1021.0	5.0	1.0
1	21	22	10	0	0	0	0	5	3	1	2	0	1	0	0	2	1022.0	0.0	1.0
1	21	23	2	0	0	0	1	6	-1	0	0	0	1	0	0	1	1023.0	9.0	1.0
1	21	24	6	0	0	0	1	5	3	0	0	0	0	1	0	1	1024.0	5.0	0.0
1	17	1	7	0	0	0	0	-1	-1	0	0	0	0	0	0	1	1001.0	3.0	0.0
1	17	2	6	0	0	0	0	-1	-1	0	0	0	0	0	0	2	1002.0	5.0	0.0
1	17	3	9	0	0	0	0	-1	-1	0	0	0	0	0	0	1	1003.0	5.0	0.0
1	17	4	2	0	0	0	0	-1	-1	0	0	0	0	0	0	1	1004.0	5.0	0.0
1	17	5	12	0	0	0	0	-1	-1	0	0	0	0	0	0	1	1005.0	5.0	0.0
1	17	6	11	0	0	0	0	-1	-1	0	0	0	0	0	0	1	1006.0	9.0	0.0
1	17	7	12	0	0	0	0	-1	-1	0	0	0	0	0	0	2	1007.0	6.0	0.0
1	17	8	5	0	0	0	0	-1	-1	0	0	0	0	0	0	2	1008.0	5.0	0.0
1	17	9	4	0	0	0	0	-1	-1	0	0	0	0	0	0	1	1009.0	4.0	0.0
1	17	10	2	0	0	0	0	-1	-1	0	0	0	0	0	0	2	1010.0	4.0	0.0
1	17	11	3	0	0	0	0	-1	-1	0	0	0	0	0	0	1	1011.0	3.0	0.0
1	17	12	7	0	0	0	0	-1	-1	0	0	0	0	0	0	2	1012.0	5.0	0.0
1	17	13	10	0	0	0	0	-1	-1	0	0	0	0	0	0	1	1013.0	6.0	0.0
1	17	14	8	0	0	0	0	-1	-1	0	0	0	0	0	0	1	1014.0	7.0	0.0
1	17	15	4	0	0	0	0	-1	-1	0	0	0	0	0	0	2	1015.0	4.0	0.0
1	17	16	5	0	0	0	0	-1	-1	0	0	0	0	0	0	1	1016.0	3.0	0.0
1	17	17	9	0	0	0	0	-1	-1	0	0	0	0	0	0	2	1017.0	7.0	0.0
1	17	18	10	0	0	0	0	-1	-1	0	0	0	0	0	0	2	1018.0	4.0	0.0
1	17	19	8	0	0	0	0	-1	-1	0	0	0	0	0	0	2	1019.0	5.0	0.0
1	17	20	1	0	0	0	0	-1	-1	0	0	0	0	0	0	2	1020.0	5.0	0.0
1	17	21	1	0	0	0	0	-1	-1	0	0	0	0	0	0	1	1021.0	5.0	0.0
1	17	22	6	0	0	0	0	-1	-1	0	0	0	0	0	0	1	1022.0	0.0	0.0
1	17	23	3	0	0	0	0	-1	-1	0	0	0	0	0	0	2	1023.0	9.0	0.0
1	17	24	11	0	0	0	0	-1	-1	0	0	0	0	0	0	2	1024.0	5.0	0.0
