transfers	matching	treatment	sessions	group	candidatenum	subject	part	period	periodtotal	transfer	transferother	transferall	tax	taxother	taxavg	taxchange	votes	votesother	win	taxwin	profit10	profit130	profit
1	0.0	1.0	100.0	101	1.0	105	1.0	1	1.0	30.0	30.0	60.0	75.0	100.0	87.5	0.0	1.0	3.0	0.0	100.0	40.0	-20.0	55.0
1	0.0	1.0	100.0	101	2.0	108	1.0	1	1.0	30.0	30.0	60.0	100.0	75.0	87.5	0.0	3.0	1.0	1.0	100.0	40.0	-20.0	75.0
1	0.0	1.0	100.0	101	1.0	109	1.0	2	2.0	70.0	60.0	130.0	100.0	10.0	55.0	1.0	3.0	1.0	1.0	100.0	40.0	-90.0	114.0
1	0.0	1.0	100.0	101	2.0	105	1.0	2	2.0	60.0	70.0	130.0	10.0	100.0	55.0	0.0	1.0	3.0	0.0	100.0	40.0	-90.0	85.0
1	0.0	1.0	100.0	101	1.0	108	1.0	3	3.0	50.0	50.0	100.0	100.0	100.0	100.0	0.0	4.0	0.0	1.0	100.0	40.0	-60.0	95.0
1	0.0	1.0	100.0	101	2.0	109	1.0	3	3.0	50.0	50.0	100.0	100.0	100.0	100.0	0.0	0.0	4.0	0.0	100.0	40.0	-60.0	75.0
1	0.0	1.0	100.0	101	1.0	109	1.0	4	4.0	30.0	0.0	30.0	100.0	100.0	100.0	0.0	4.0	0.0	1.0	100.0	40.0	10.0	75.0
1	0.0	1.0	100.0	101	2.0	107	1.0	4	4.0	0.0	30.0	30.0	100.0	100.0	100.0	0.0	0.0	4.0	0.0	100.0	40.0	10.0	25.0
1	0.0	1.0	100.0	101	1.0	107	1.0	5	5.0	10.0	10.0	20.0	100.0	90.0	95.0	0.0	3.0	1.0	1.0	100.0	40.0	20.0	55.0
1	0.0	1.0	100.0	101	2.0	109	1.0	5	5.0	10.0	10.0	20.0	90.0	100.0	95.0	0.0	1.0	3.0	0.0	100.0	40.0	20.0	35.0
1	0.0	1.0	100.0	101	1.0	109	1.0	6	6.0	0.0	10.0	10.0	100.0	100.0	100.0	0.0	4.0	0.0	1.0	100.0	40.0	30.0	45.0
1	0.0	1.0	100.0	101	2.0	105	1.0	6	6.0	10.0	0.0	10.0	100.0	100.0	100.0	0.0	0.0	4.0	0.0	100.0	40.0	30.0	35.0
1	0.0	1.0	100.0	101	1.0	106	1.0	7	7.0	90.0	40.0	130.0	100.0	100.0	100.0	0.0	4.0	0.0	1.0	100.0	40.0	-90.0	135.0
1	0.0	1.0	100.0	101	2.0	108	1.0	7	7.0	40.0	90.0	130.0	100.0	100.0	100.0	0.0	0.0	4.0	0.0	100.0	40.0	-90.0	65.0
1	0.0	1.0	100.0	101	1.0	105	1.0	8	8.0	0.0	5.0	5.0	40.0	100.0	70.0	0.0	1.0	3.0	0.0	100.0	40.0	35.0	25.0
1	0.0	1.0	100.0	101	2.0	109	1.0	8	8.0	5.0	0.0	5.0	100.0	40.0	70.0	0.0	3.0	1.0	1.0	100.0	40.0	35.0	50.0
1	0.0	1.0	100.0	101	1.0	107	1.0	9	9.0	0.0	0.0	0.0	100.0	100.0	100.0	0.0	4.0	0.0	1.0	100.0	40.0	40.0	45.0
1	0.0	1.0	100.0	101	2.0	105	1.0	9	9.0	0.0	0.0	0.0	100.0	100.0	100.0	0.0	0.0	4.0	0.0	100.0	40.0	40.0	25.0
1	0.0	1.0	100.0	101	1.0	109	1.0	10	10.0	15.0	10.0	25.0	100.0	100.0	100.0	0.0	3.0	1.0	1.0	100.0	40.0	15.0	60.0
1	0.0	1.0	100.0	101	2.0	106	1.0	10	10.0	10.0	15.0	25.0	100.0	100.0	100.0	0.0	1.0	3.0	0.0	100.0	40.0	15.0	35.0
1	0.0	1.0	100.0	101	1.0	108	1.0	11	11.0	70.0	0.0	70.0	100.0	100.0	100.0	0.0	4.0	0.0	1.0	100.0	40.0	-30.0	115.0
1	0.0	1.0	100.0	101	2.0	109	1.0	11	11.0	0.0	70.0	70.0	100.0	100.0	100.0	0.0	0.0	4.0	0.0	100.0	40.0	-30.0	25.0
1	0.0	1.0	100.0	101	1.0	107	1.0	12	12.0	0.0	0.0	0.0	100.0	100.0	100.0	0.0	4.0	0.0	1.0	100.0	40.0	40.0	45.0
1	0.0	1.0	100.0	101	2.0	108	1.0	12	12.0	0.0	0.0	0.0	100.0	100.0	100.0	0.0	0.0	4.0	0.0	100.0	40.0	40.0	25.0
1	0.0	1.0	100.0	101	1.0	108	1.0	13	13.0	20.0	15.0	35.0	100.0	100.0	100.0	0.0	4.0	0.0	1.0	100.0	40.0	5.0	65.0
1	0.0	1.0	100.0	101	2.0	106	1.0	13	13.0	15.0	20.0	35.0	100.0	100.0	100.0	0.0	0.0	4.0	0.0	100.0	40.0	5.0	40.0
1	0.0	1.0	100.0	101	1.0	107	1.0	14	14.0	0.0	0.0	0.0	100.0	100.0	100.0	0.0	4.0	0.0	1.0	100.0	40.0	40.0	45.0
1	0.0	1.0	100.0	101	2.0	108	1.0	14	14.0	0.0	0.0	0.0	100.0	100.0	100.0	0.0	0.0	4.0	0.0	100.0	40.0	40.0	25.0
1	0.0	1.0	100.0	101	1.0	106	1.0	15	15.0	0.0	0.0	0.0	100.0	0.0	50.0	0.0	3.0	1.0	1.0	100.0	40.0	40.0	45.0
1	0.0	1.0	100.0	101	2.0	107	1.0	15	15.0	0.0	0.0	0.0	0.0	100.0	50.0	0.0	1.0	3.0	0.0	100.0	40.0	40.0	25.0
0	0.0	0.0	100.0	101	1.0	108	2.0	1	16.0				100.0	100.0	100.0	0.0	4.0	0.0	1.0	100.0	40.0	40.0	45.0
0	0.0	0.0	100.0	101	2.0	109	2.0	1	16.0				100.0	100.0	100.0	0.0	0.0	4.0	0.0	100.0	40.0	40.0	25.0
0	0.0	0.0	100.0	101	1.0	109	2.0	2	17.0				100.0	100.0	100.0	0.0	4.0	0.0	1.0	100.0	40.0	40.0	45.0
0	0.0	0.0	100.0	101	2.0	106	2.0	2	17.0				100.0	100.0	100.0	0.0	0.0	4.0	0.0	100.0	40.0	40.0	25.0
0	0.0	0.0	100.0	101	1.0	106	2.0	3	18.0				100.0	100.0	100.0	0.0	3.0	1.0	1.0	100.0	40.0	40.0	45.0
0	0.0	0.0	100.0	101	2.0	107	2.0	3	18.0				100.0	100.0	100.0	0.0	1.0	3.0	0.0	100.0	40.0	40.0	25.0
0	0.0	0.0	100.0	101	1.0	105	2.0	4	19.0				100.0	100.0	100.0	0.0	3.0	1.0	1.0	100.0	40.0	40.0	45.0
0	0.0	0.0	100.0	101	2.0	106	2.0	4	19.0				100.0	100.0	100.0	0.0	1.0	3.0	0.0	100.0	40.0	40.0	25.0
0	0.0	0.0	100.0	101	1.0	107	2.0	5	20.0				100.0	100.0	100.0	0.0	3.0	1.0	1.0	100.0	40.0	40.0	45.0
0	0.0	0.0	100.0	101	2.0	105	2.0	5	20.0				100.0	100.0	100.0	0.0	1.0	3.0	0.0	100.0	40.0	40.0	25.0
0	0.0	0.0	100.0	101	1.0	109	2.0	6	21.0				100.0	100.0	100.0	0.0	3.0	1.0	1.0	100.0	40.0	40.0	45.0
0	0.0	0.0	100.0	101	2.0	108	2.0	6	21.0				100.0	100.0	100.0	0.0	1.0	3.0	0.0	100.0	40.0	40.0	25.0
0	0.0	0.0	100.0	101	1.0	107	2.0	7	22.0				100.0	95.0	97.5	0.0	3.0	1.0	1.0	100.0	40.0	40.0	45.0
0	0.0	0.0	100.0	101	2.0	109	2.0	7	22.0				95.0	100.0	97.5	0.0	1.0	3.0	0.0	100.0	40.0	40.0	25.0
0	0.0	0.0	100.0	101	1.0	106	2.0	8	23.0				100.0	100.0	100.0	0.0	4.0	0.0	1.0	100.0	40.0	40.0	45.0
0	0.0	0.0	100.0	101	2.0	108	2.0	8	23.0				100.0	100.0	100.0	0.0	0.0	4.0	0.0	100.0	40.0	40.0	25.0
0	0.0	0.0	100.0	101	1.0	107	2.0	9	24.0				100.0	100.0	100.0	0.0	3.0	1.0	1.0	100.0	40.0	40.0	45.0
0	0.0	0.0	100.0	101	2.0	106	2.0	9	24.0				100.0	100.0	100.0	0.0	1.0	3.0	0.0	100.0	40.0	40.0	25.0
0	0.0	0.0	100.0	101	1.0	106	2.0	10	25.0				100.0	100.0	100.0	0.0	3.0	1.0	1.0	100.0	40.0	40.0	45.0
0	0.0	0.0	100.0	101	2.0	107	2.0	10	25.0				100.0	100.0	100.0	0.0	1.0	3.0	0.0	100.0	40.0	40.0	25.0
0	0.0	0.0	100.0	101	1.0	107	2.0	11	26.0				100.0	100.0	100.0	0.0	3.0	1.0	1.0	100.0	40.0	40.0	45.0
0	0.0	0.0	100.0	101	2.0	105	2.0	11	26.0				100.0	100.0	100.0	0.0	1.0	3.0	0.0	100.0	40.0	40.0	25.0
0	0.0	0.0	100.0	101	1.0	105	2.0	12	27.0				100.0	100.0	100.0	0.0	4.0	0.0	1.0	100.0	40.0	40.0	45.0
0	0.0	0.0	100.0	101	2.0	107	2.0	12	27.0				100.0	100.0	100.0	0.0	0.0	4.0	0.0	100.0	40.0	40.0	25.0
0	0.0	0.0	100.0	101	1.0	107	2.0	13	28.0				100.0	100.0	100.0	0.0	4.0	0.0	1.0	100.0	40.0	40.0	45.0
0	0.0	0.0	100.0	101	2.0	109	2.0	13	28.0				100.0	100.0	100.0	0.0	0.0	4.0	0.0	100.0	40.0	40.0	25.0
0	0.0	0.0	100.0	101	1.0	109	2.0	14	29.0				100.0	100.0	100.0	0.0	4.0	0.0	1.0	100.0	40.0	40.0	45.0
0	0.0	0.0	100.0	101	2.0	108	2.0	14	29.0				100.0	100.0	100.0	0.0	0.0	4.0	0.0	100.0	40.0	40.0	25.0
0	0.0	0.0	100.0	101	1.0	108	2.0	15	30.0				100.0	100.0	100.0	0.0	3.0	1.0	1.0	100.0	40.0	40.0	45.0
0	0.0	0.0	100.0	101	2.0	107	2.0	15	30.0				100.0	100.0	100.0	0.0	1.0	3.0	0.0	100.0	40.0	40.0	25.0
1	0.0	1.0	200.0	201	1.0	206	1.0	1	1.0	0.0	0.0	0.0	70.0	50.0	60.0	0.0	3.0	1.0	1.0	70.0	31.0	67.0	45.0
1	0.0	1.0	200.0	201	2.0	205	1.0	1	1.0	0.0	0.0	0.0	50.0	70.0	60.0	1.0	1.0	3.0	0.0	70.0	31.0	67.0	24.0
1	0.0	1.0	200.0	201	1.0	211	1.0	2	2.0	0.0	0.0	0.0	100.0	90.0	95.0	0.0	3.0	1.0	1.0	100.0	40.0	40.0	45.0
1	0.0	1.0	200.0	201	2.0	206	1.0	2	2.0	0.0	0.0	0.0	90.0	100.0	95.0	0.0	1.0	3.0	0.0	100.0	40.0	40.0	25.0
1	0.0	1.0	200.0	201	1.0	206	1.0	3	3.0	0.0	0.0	0.0	90.0	100.0	95.0	1.0	2.0	2.0	1.0	90.0	37.0	49.0	44.0
1	0.0	1.0	200.0	201	2.0	210	1.0	3	3.0	0.0	0.0	0.0	100.0	90.0	95.0	0.0	2.0	2.0	0.0	90.0	37.0	49.0	25.0
1	0.0	1.0	200.0	201	1.0	207	1.0	4	4.0	0.0	0.0	0.0	100.0	100.0	100.0	0.0	2.0	2.0	0.0	100.0	40.0	40.0	25.0
1	0.0	1.0	200.0	201	2.0	205	1.0	4	4.0	0.0	0.0	0.0	100.0	100.0	100.0	0.0	2.0	2.0	1.0	100.0	40.0	40.0	45.0
1	0.0	1.0	200.0	201	1.0	211	1.0	5	5.0	10.0	10.0	20.0	100.0	100.0	100.0	0.0	3.0	1.0	1.0	100.0	40.0	20.0	55.0
1	0.0	1.0	200.0	201	2.0	209	1.0	5	5.0	10.0	10.0	20.0	100.0	100.0	100.0	0.0	1.0	3.0	0.0	100.0	40.0	20.0	35.0
1	0.0	1.0	200.0	201	1.0	207	1.0	6	6.0	0.0	0.0	0.0	100.0	100.0	100.0	0.0	4.0	0.0	1.0	100.0	40.0	40.0	45.0
1	0.0	1.0	200.0	201	2.0	205	1.0	6	6.0	0.0	0.0	0.0	100.0	100.0	100.0	0.0	0.0	4.0	0.0	100.0	40.0	40.0	25.0
1	0.0	1.0	200.0	201	1.0	209	1.0	7	7.0	1.0	1.0	2.0	100.0	100.0	100.0	0.0	3.0	1.0	1.0	100.0	40.0	38.0	46.0
1	0.0	1.0	200.0	201	2.0	207	1.0	7	7.0	1.0	1.0	2.0	100.0	100.0	100.0	0.0	1.0	3.0	0.0	100.0	40.0	38.0	26.0
1	0.0	1.0	200.0	201	1.0	208	1.0	8	8.0	0.0	0.0	0.0	100.0	100.0	100.0	0.0	2.0	2.0	0.0	100.0	40.0	40.0	25.0
1	0.0	1.0	200.0	201	2.0	205	1.0	8	8.0	0.0	0.0	0.0	100.0	100.0	100.0	0.0	2.0	2.0	1.0	100.0	40.0	40.0	45.0
1	0.0	1.0	200.0	201	1.0	209	1.0	9	9.0	3.0	25.0	28.0	100.0	100.0	100.0	0.0	4.0	0.0	1.0	100.0	40.0	12.0	48.0
1	0.0	1.0	200.0	201	2.0	210	1.0	9	9.0	25.0	3.0	28.0	100.0	100.0	100.0	0.0	0.0	4.0	0.0	100.0	40.0	12.0	50.0
1	0.0	1.0	200.0	201	1.0	210	1.0	10	10.0	0.0	0.0	0.0	100.0	100.0	100.0	0.0	2.0	2.0	0.0	100.0	40.0	40.0	25.0
1	0.0	1.0	200.0	201	2.0	205	1.0	10	10.0	0.0	0.0	0.0	100.0	100.0	100.0	0.0	2.0	2.0	1.0	100.0	40.0	40.0	45.0
1	0.0	1.0	200.0	201	1.0	211	1.0	11	11.0	0.0	0.0	0.0	100.0	100.0	100.0	0.0	2.0	2.0	0.0	100.0	40.0	40.0	25.0
1	0.0	1.0	200.0	201	2.0	209	1.0	11	11.0	0.0	0.0	0.0	100.0	100.0	100.0	0.0	2.0	2.0	1.0	100.0	40.0	40.0	45.0
1	0.0	1.0	200.0	201	1.0	208	1.0	12	12.0	0.0	0.0	0.0	100.0	100.0	100.0	0.0	1.0	3.0	0.0	100.0	40.0	40.0	25.0
1	0.0	1.0	200.0	201	2.0	207	1.0	12	12.0	0.0	0.0	0.0	100.0	100.0	100.0	0.0	3.0	1.0	1.0	100.0	40.0	40.0	45.0
1	0.0	1.0	200.0	201	1.0	207	1.0	13	13.0	0.0	0.0	0.0	100.0	100.0	100.0	0.0	2.0	2.0	1.0	100.0	40.0	40.0	45.0
1	0.0	1.0	200.0	201	2.0	211	1.0	13	13.0	0.0	0.0	0.0	100.0	100.0	100.0	0.0	2.0	2.0	0.0	100.0	40.0	40.0	25.0
1	0.0	1.0	200.0	201	1.0	209	1.0	14	14.0	0.0	0.0	0.0	100.0	100.0	100.0	0.0	4.0	0.0	1.0	100.0	40.0	40.0	45.0
1	0.0	1.0	200.0	201	2.0	206	1.0	14	14.0	0.0	0.0	0.0	100.0	100.0	100.0	0.0	0.0	4.0	0.0	100.0	40.0	40.0	25.0
1	0.0	1.0	200.0	201	1.0	210	1.0	15	15.0	0.0	0.0	0.0	100.0	100.0	100.0	0.0	3.0	1.0	1.0	100.0	40.0	40.0	45.0
1	0.0	1.0	200.0	201	2.0	207	1.0	15	15.0	0.0	0.0	0.0	100.0	100.0	100.0	0.0	1.0	3.0	0.0	100.0	40.0	40.0	25.0
0	0.0	0.0	200.0	201	1.0	205	2.0	1	16.0				100.0	100.0	100.0	0.0	4.0	0.0	1.0	100.0	40.0	40.0	45.0
0	0.0	0.0	200.0	201	2.0	209	2.0	1	16.0				100.0	100.0	100.0	0.0	0.0	4.0	0.0	100.0	40.0	40.0	25.0
0	0.0	0.0	200.0	201	1.0	208	2.0	2	17.0				100.0	100.0	100.0	0.0	2.0	2.0	1.0	100.0	40.0	40.0	45.0
0	0.0	0.0	200.0	201	2.0	205	2.0	2	17.0				100.0	100.0	100.0	0.0	2.0	2.0	0.0	100.0	40.0	40.0	25.0
0	0.0	0.0	200.0	201	1.0	207	2.0	3	18.0				100.0	100.0	100.0	0.0	2.0	2.0	1.0	100.0	40.0	40.0	45.0
0	0.0	0.0	200.0	201	2.0	210	2.0	3	18.0				100.0	100.0	100.0	0.0	2.0	2.0	0.0	100.0	40.0	40.0	25.0
0	0.0	0.0	200.0	201	1.0	206	2.0	4	19.0				100.0	50.0	75.0	0.0	3.0	1.0	1.0	100.0	40.0	40.0	45.0
0	0.0	0.0	200.0	201	2.0	209	2.0	4	19.0				50.0	100.0	75.0	0.0	1.0	3.0	0.0	100.0	40.0	40.0	25.0
0	0.0	0.0	200.0	201	1.0	208	2.0	5	20.0				100.0	100.0	100.0	0.0	1.0	3.0	0.0	100.0	40.0	40.0	25.0
0	0.0	0.0	200.0	201	2.0	205	2.0	5	20.0				100.0	100.0	100.0	0.0	3.0	1.0	1.0	100.0	40.0	40.0	45.0
0	0.0	0.0	200.0	201	1.0	210	2.0	6	21.0				100.0	95.0	97.5	0.0	3.0	1.0	1.0	100.0	40.0	40.0	45.0
0	0.0	0.0	200.0	201	2.0	208	2.0	6	21.0				95.0	100.0	97.5	0.0	1.0	3.0	0.0	100.0	40.0	40.0	25.0
0	0.0	0.0	200.0	201	1.0	206	2.0	7	22.0				90.0	100.0	95.0	0.0	1.0	3.0	0.0	100.0	40.0	40.0	25.0
0	0.0	0.0	200.0	201	2.0	211	2.0	7	22.0				100.0	90.0	95.0	0.0	3.0	1.0	1.0	100.0	40.0	40.0	45.0
0	0.0	0.0	200.0	201	1.0	209	2.0	8	23.0				0.0	100.0	50.0	0.0	1.0	3.0	0.0	100.0	40.0	40.0	25.0
0	0.0	0.0	200.0	201	2.0	205	2.0	8	23.0				100.0	0.0	50.0	0.0	3.0	1.0	1.0	100.0	40.0	40.0	45.0
0	0.0	0.0	200.0	201	1.0	207	2.0	9	24.0				100.0	95.0	97.5	0.0	3.0	1.0	1.0	100.0	40.0	40.0	45.0
0	0.0	0.0	200.0	201	2.0	206	2.0	9	24.0				95.0	100.0	97.5	0.0	1.0	3.0	0.0	100.0	40.0	40.0	25.0
0	0.0	0.0	200.0	201	1.0	210	2.0	10	25.0				100.0	100.0	100.0	0.0	3.0	1.0	1.0	100.0	40.0	40.0	45.0
0	0.0	0.0	200.0	201	2.0	205	2.0	10	25.0				100.0	100.0	100.0	0.0	1.0	3.0	0.0	100.0	40.0	40.0	25.0
0	0.0	0.0	200.0	201	1.0	205	2.0	11	26.0				100.0	100.0	100.0	0.0	2.0	2.0	1.0	100.0	40.0	40.0	45.0
0	0.0	0.0	200.0	201	2.0	206	2.0	11	26.0				100.0	100.0	100.0	0.0	2.0	2.0	0.0	100.0	40.0	40.0	25.0
0	0.0	0.0	200.0	201	1.0	208	2.0	12	27.0				100.0	100.0	100.0	0.0	3.0	1.0	1.0	100.0	40.0	40.0	45.0
0	0.0	0.0	200.0	201	2.0	209	2.0	12	27.0				100.0	100.0	100.0	0.0	1.0	3.0	0.0	100.0	40.0	40.0	25.0
0	0.0	0.0	200.0	201	1.0	210	2.0	13	28.0				100.0	100.0	100.0	0.0	2.0	2.0	1.0	100.0	40.0	40.0	45.0
0	0.0	0.0	200.0	201	2.0	211	2.0	13	28.0				100.0	100.0	100.0	0.0	2.0	2.0	0.0	100.0	40.0	40.0	25.0
0	0.0	0.0	200.0	201	1.0	209	2.0	14	29.0				100.0	100.0	100.0	0.0	3.0	1.0	1.0	100.0	40.0	40.0	45.0
0	0.0	0.0	200.0	201	2.0	208	2.0	14	29.0				100.0	100.0	100.0	0.0	1.0	3.0	0.0	100.0	40.0	40.0	25.0
0	0.0	0.0	200.0	201	1.0	211	2.0	15	30.0				100.0	100.0	100.0	0.0	1.0	3.0	0.0	100.0	40.0	40.0	25.0
0	0.0	0.0	200.0	201	2.0	210	2.0	15	30.0				100.0	100.0	100.0	0.0	3.0	1.0	1.0	100.0	40.0	40.0	45.0
1	0.0	1.0	300.0	301	1.0	311	1.0	1	1.0	15.0	15.0	30.0	50.0	50.0	50.0	0.0	3.0	1.0	1.0	50.0	25.0	55.0	60.0
1	0.0	1.0	300.0	301	2.0	310	1.0	1	1.0	15.0	15.0	30.0	50.0	50.0	50.0	0.0	1.0	3.0	0.0	50.0	25.0	55.0	40.0
1	0.0	1.0	300.0	301	1.0	310	1.0	2	2.0	0.0	0.0	0.0	75.0	60.0	67.5	0.0	3.0	1.0	1.0	75.0	32.5	62.5	45.0
1	0.0	1.0	300.0	301	2.0	305	1.0	2	2.0	0.0	0.0	0.0	60.0	75.0	67.5	0.0	1.0	3.0	0.0	75.0	32.5	62.5	25.0
1	0.0	1.0	300.0	301	1.0	312	1.0	3	3.0	15.0	15.0	30.0	75.0	75.0	75.0	0.0	2.0	2.0	0.0	75.0	32.5	32.5	40.0
1	0.0	1.0	300.0	301	2.0	308	1.0	3	3.0	15.0	15.0	30.0	75.0	75.0	75.0	0.0	2.0	2.0	1.0	75.0	32.5	32.5	60.0
1	0.0	1.0	300.0	301	1.0	308	1.0	4	4.0	60.0	70.0	130.0	100.0	100.0	100.0	1.0	2.0	2.0	0.0	100.0	40.0	-90.0	84.0
1	0.0	1.0	300.0	301	2.0	306	1.0	4	4.0	70.0	60.0	130.0	100.0	100.0	100.0	0.0	2.0	2.0	1.0	100.0	40.0	-90.0	115.0
1	0.0	1.0	300.0	301	1.0	306	1.0	5	5.0	15.0	15.0	30.0	100.0	100.0	100.0	0.0	3.0	1.0	1.0	100.0	40.0	10.0	60.0
1	0.0	1.0	300.0	301	2.0	307	1.0	5	5.0	15.0	15.0	30.0	100.0	100.0	100.0	0.0	1.0	3.0	0.0	100.0	40.0	10.0	40.0
1	0.0	1.0	300.0	301	1.0	307	1.0	6	6.0	0.0	0.0	0.0	100.0	80.0	90.0	0.0	2.0	2.0	0.0	80.0	34.0	58.0	25.0
1	0.0	1.0	300.0	301	2.0	310	1.0	6	6.0	0.0	0.0	0.0	80.0	100.0	90.0	0.0	2.0	2.0	1.0	80.0	34.0	58.0	45.0
1	0.0	1.0	300.0	301	1.0	305	1.0	7	7.0	15.0	15.0	30.0	90.0	85.0	87.5	0.0	2.0	2.0	0.0	85.0	35.5	23.5	40.0
1	0.0	1.0	300.0	301	2.0	311	1.0	7	7.0	15.0	15.0	30.0	85.0	90.0	87.5	0.0	2.0	2.0	1.0	85.0	35.5	23.5	60.0
1	0.0	1.0	300.0	301	1.0	308	1.0	8	8.0	10.0	10.0	20.0	100.0	80.0	90.0	0.0	2.0	2.0	1.0	100.0	40.0	20.0	55.0
1	0.0	1.0	300.0	301	2.0	312	1.0	8	8.0	10.0	10.0	20.0	80.0	100.0	90.0	0.0	2.0	2.0	0.0	100.0	40.0	20.0	35.0
1	0.0	1.0	300.0	301	1.0	310	1.0	9	9.0	0.0	0.0	0.0	90.0	85.0	87.5	0.0	2.0	2.0	1.0	90.0	37.0	49.0	45.0
1	0.0	1.0	300.0	301	2.0	311	1.0	9	9.0	0.0	0.0	0.0	85.0	90.0	87.5	0.0	2.0	2.0	0.0	90.0	37.0	49.0	25.0
1	0.0	1.0	300.0	301	1.0	305	1.0	10	10.0	0.0	0.0	0.0	100.0	100.0	100.0	0.0	3.0	1.0	1.0	100.0	40.0	40.0	45.0
1	0.0	1.0	300.0	301	2.0	307	1.0	10	10.0	0.0	0.0	0.0	100.0	100.0	100.0	0.0	1.0	3.0	0.0	100.0	40.0	40.0	25.0
1	0.0	1.0	300.0	301	1.0	306	1.0	11	11.0	0.0	0.0	0.0	100.0	100.0	100.0	0.0	4.0	0.0	1.0	100.0	40.0	40.0	45.0
1	0.0	1.0	300.0	301	2.0	305	1.0	11	11.0	0.0	0.0	0.0	100.0	100.0	100.0	0.0	0.0	4.0	0.0	100.0	40.0	40.0	25.0
1	0.0	1.0	300.0	301	1.0	310	1.0	12	12.0	0.0	0.0	0.0	90.0	90.0	90.0	1.0	4.0	0.0	1.0	90.0	37.0	49.0	44.0
1	0.0	1.0	300.0	301	2.0	308	1.0	12	12.0	0.0	0.0	0.0	90.0	90.0	90.0	0.0	0.0	4.0	0.0	90.0	37.0	49.0	25.0
1	0.0	1.0	300.0	301	1.0	312	1.0	13	13.0	0.0	0.0	0.0	100.0	100.0	100.0	0.0	3.0	1.0	1.0	100.0	40.0	40.0	45.0
1	0.0	1.0	300.0	301	2.0	307	1.0	13	13.0	0.0	0.0	0.0	100.0	100.0	100.0	0.0	1.0	3.0	0.0	100.0	40.0	40.0	25.0
1	0.0	1.0	300.0	301	1.0	305	1.0	14	14.0	0.0	0.0	0.0	100.0	100.0	100.0	0.0	2.0	2.0	1.0	100.0	40.0	40.0	45.0
1	0.0	1.0	300.0	301	2.0	306	1.0	14	14.0	0.0	0.0	0.0	100.0	100.0	100.0	0.0	2.0	2.0	0.0	100.0	40.0	40.0	25.0
1	0.0	1.0	300.0	301	1.0	307	1.0	15	15.0	0.0	0.0	0.0	100.0	100.0	100.0	0.0	4.0	0.0	1.0	100.0	40.0	40.0	45.0
1	0.0	1.0	300.0	301	2.0	310	1.0	15	15.0	0.0	0.0	0.0	100.0	100.0	100.0	0.0	0.0	4.0	0.0	100.0	40.0	40.0	25.0
0	0.0	0.0	300.0	301	1.0	306	2.0	1	16.0				100.0	90.0	95.0	0.0	3.0	1.0	1.0	100.0	40.0	40.0	45.0
0	0.0	0.0	300.0	301	2.0	310	2.0	1	16.0				90.0	100.0	95.0	1.0	1.0	3.0	0.0	100.0	40.0	40.0	24.0
0	0.0	0.0	300.0	301	1.0	311	2.0	2	17.0				100.0	100.0	100.0	0.0	3.0	1.0	1.0	100.0	40.0	40.0	45.0
0	0.0	0.0	300.0	301	2.0	305	2.0	2	17.0				100.0	100.0	100.0	0.0	1.0	3.0	0.0	100.0	40.0	40.0	25.0
0	0.0	0.0	300.0	301	1.0	312	2.0	3	18.0				75.0	90.0	82.5	1.0	2.0	2.0	1.0	75.0	32.5	62.5	44.0
0	0.0	0.0	300.0	301	2.0	306	2.0	3	18.0				90.0	75.0	82.5	0.0	2.0	2.0	0.0	75.0	32.5	62.5	25.0
0	0.0	0.0	300.0	301	1.0	311	2.0	4	19.0				100.0	90.0	95.0	0.0	2.0	2.0	1.0	100.0	40.0	40.0	45.0
0	0.0	0.0	300.0	301	2.0	309	2.0	4	19.0				90.0	100.0	95.0	0.0	2.0	2.0	0.0	100.0	40.0	40.0	25.0
0	0.0	0.0	300.0	301	1.0	306	2.0	5	20.0				100.0	100.0	100.0	0.0	2.0	2.0	0.0	100.0	40.0	40.0	25.0
0	0.0	0.0	300.0	301	2.0	307	2.0	5	20.0				100.0	100.0	100.0	0.0	2.0	2.0	1.0	100.0	40.0	40.0	45.0
0	0.0	0.0	300.0	301	1.0	309	2.0	6	21.0				100.0	100.0	100.0	0.0	3.0	1.0	1.0	100.0	40.0	40.0	45.0
0	0.0	0.0	300.0	301	2.0	308	2.0	6	21.0				100.0	100.0	100.0	0.0	1.0	3.0	0.0	100.0	40.0	40.0	25.0
0	0.0	0.0	300.0	301	1.0	308	2.0	7	22.0				100.0	100.0	100.0	0.0	4.0	0.0	1.0	100.0	40.0	40.0	45.0
0	0.0	0.0	300.0	301	2.0	311	2.0	7	22.0				100.0	100.0	100.0	1.0	0.0	4.0	0.0	100.0	40.0	40.0	24.0
0	0.0	0.0	300.0	301	1.0	311	2.0	8	23.0				100.0	100.0	100.0	0.0	2.0	2.0	0.0	100.0	40.0	40.0	25.0
0	0.0	0.0	300.0	301	2.0	309	2.0	8	23.0				100.0	100.0	100.0	0.0	2.0	2.0	1.0	100.0	40.0	40.0	45.0
0	0.0	0.0	300.0	301	1.0	312	2.0	9	24.0				90.0	100.0	95.0	1.0	0.0	4.0	0.0	100.0	40.0	40.0	24.0
0	0.0	0.0	300.0	301	2.0	306	2.0	9	24.0				100.0	90.0	95.0	0.0	4.0	0.0	1.0	100.0	40.0	40.0	45.0
0	0.0	0.0	300.0	301	1.0	309	2.0	10	25.0				100.0	100.0	100.0	0.0	4.0	0.0	1.0	100.0	40.0	40.0	45.0
0	0.0	0.0	300.0	301	2.0	312	2.0	10	25.0				100.0	100.0	100.0	0.0	0.0	4.0	0.0	100.0	40.0	40.0	25.0
0	0.0	0.0	300.0	301	1.0	305	2.0	11	26.0				100.0	100.0	100.0	0.0	2.0	2.0	1.0	100.0	40.0	40.0	45.0
0	0.0	0.0	300.0	301	2.0	306	2.0	11	26.0				100.0	100.0	100.0	0.0	2.0	2.0	0.0	100.0	40.0	40.0	25.0
0	0.0	0.0	300.0	301	1.0	306	2.0	12	27.0				100.0	100.0	100.0	0.0	4.0	0.0	1.0	100.0	40.0	40.0	45.0
0	0.0	0.0	300.0	301	2.0	311	2.0	12	27.0				100.0	100.0	100.0	3.0	0.0	4.0	0.0	100.0	40.0	40.0	22.0
0	0.0	0.0	300.0	301	1.0	310	2.0	13	28.0				90.0	85.0	87.5	1.0	2.0	2.0	1.0	90.0	37.0	49.0	44.0
0	0.0	0.0	300.0	301	2.0	312	2.0	13	28.0				85.0	90.0	87.5	0.0	2.0	2.0	0.0	90.0	37.0	49.0	25.0
0	0.0	0.0	300.0	301	1.0	305	2.0	14	29.0				100.0	85.0	92.5	0.0	3.0	1.0	1.0	100.0	40.0	40.0	45.0
0	0.0	0.0	300.0	301	2.0	310	2.0	14	29.0				85.0	100.0	92.5	1.0	1.0	3.0	0.0	100.0	40.0	40.0	24.0
0	0.0	0.0	300.0	301	1.0	311	2.0	15	30.0				95.0	100.0	97.5	3.0	1.0	3.0	0.0	100.0	40.0	40.0	22.0
0	0.0	0.0	300.0	301	2.0	307	2.0	15	30.0				100.0	95.0	97.5	0.0	3.0	1.0	1.0	100.0	40.0	40.0	45.0
1	0.0	1.0	400.0	401	1.0	409	1.0	1	1.0	5.0	5.0	10.0	30.0	65.0	47.5	0.0	1.0	3.0	0.0	65.0	29.5	61.5	30.0
1	0.0	1.0	400.0	401	2.0	412	1.0	1	1.0	5.0	5.0	10.0	65.0	30.0	47.5	0.0	3.0	1.0	1.0	65.0	29.5	61.5	50.0
1	0.0	1.0	400.0	401	1.0	411	1.0	2	2.0	0.0	0.0	0.0	50.0	70.0	60.0	0.0	1.0	3.0	0.0	70.0	31.0	67.0	25.0
1	0.0	1.0	400.0	401	2.0	408	1.0	2	2.0	0.0	0.0	0.0	70.0	50.0	60.0	0.0	3.0	1.0	1.0	70.0	31.0	67.0	45.0
1	0.0	1.0	400.0	401	1.0	409	1.0	3	3.0	0.0	0.0	0.0	100.0	100.0	100.0	2.0	2.0	2.0	1.0	100.0	40.0	40.0	43.0
1	0.0	1.0	400.0	401	2.0	411	1.0	3	3.0	0.0	0.0	0.0	100.0	100.0	100.0	0.0	2.0	2.0	0.0	100.0	40.0	40.0	25.0
1	0.0	1.0	400.0	401	1.0	412	1.0	4	4.0	130.0	0.0	130.0	100.0	100.0	100.0	0.0	1.0	3.0	0.0	100.0	40.0	-90.0	155.0
1	0.0	1.0	400.0	401	2.0	410	1.0	4	4.0	0.0	130.0	130.0	100.0	100.0	100.0	0.0	3.0	1.0	1.0	100.0	40.0	-90.0	45.0
1	0.0	1.0	400.0	401	1.0	410	1.0	5	5.0	50.0	80.0	130.0	100.0	50.0	75.0	0.0	3.0	1.0	1.0	100.0	40.0	-90.0	95.0
1	0.0	1.0	400.0	401	2.0	406	1.0	5	5.0	80.0	50.0	130.0	50.0	100.0	75.0	0.0	1.0	3.0	0.0	100.0	40.0	-90.0	105.0
1	0.0	1.0	400.0	401	1.0	409	1.0	6	6.0	0.0	0.0	0.0	100.0	100.0	100.0	0.0	4.0	0.0	1.0	100.0	40.0	40.0	45.0
1	0.0	1.0	400.0	401	2.0	407	1.0	6	6.0	0.0	0.0	0.0	100.0	100.0	100.0	0.0	0.0	4.0	0.0	100.0	40.0	40.0	25.0
1	0.0	1.0	400.0	401	1.0	408	1.0	7	7.0	60.0	70.0	130.0	100.0	100.0	100.0	0.0	4.0	0.0	1.0	100.0	40.0	-90.0	105.0
1	0.0	1.0	400.0	401	2.0	411	1.0	7	7.0	70.0	60.0	130.0	100.0	100.0	100.0	0.0	0.0	4.0	0.0	100.0	40.0	-90.0	95.0
1	0.0	1.0	400.0	401	1.0	407	1.0	8	8.0	40.0	40.0	80.0	100.0	100.0	100.0	0.0	4.0	0.0	1.0	100.0	40.0	-40.0	85.0
1	0.0	1.0	400.0	401	2.0	408	1.0	8	8.0	40.0	40.0	80.0	100.0	100.0	100.0	0.0	0.0	4.0	0.0	100.0	40.0	-40.0	65.0
1	0.0	1.0	400.0	401	1.0	406	1.0	9	9.0	0.0	0.0	0.0	100.0	100.0	100.0	0.0	2.0	2.0	1.0	100.0	40.0	40.0	45.0
1	0.0	1.0	400.0	401	2.0	412	1.0	9	9.0	0.0	0.0	0.0	100.0	100.0	100.0	0.0	2.0	2.0	0.0	100.0	40.0	40.0	25.0
1	0.0	1.0	400.0	401	1.0	412	1.0	10	10.0	0.0	0.0	0.0	100.0	100.0	100.0	0.0	3.0	1.0	1.0	100.0	40.0	40.0	45.0
1	0.0	1.0	400.0	401	2.0	405	1.0	10	10.0	0.0	0.0	0.0	100.0	100.0	100.0	0.0	1.0	3.0	0.0	100.0	40.0	40.0	25.0
1	0.0	1.0	400.0	401	1.0	408	1.0	11	11.0	0.0	0.0	0.0	100.0	100.0	100.0	0.0	3.0	1.0	1.0	100.0	40.0	40.0	45.0
1	0.0	1.0	400.0	401	2.0	406	1.0	11	11.0	0.0	0.0	0.0	100.0	100.0	100.0	0.0	1.0	3.0	0.0	100.0	40.0	40.0	25.0
1	0.0	1.0	400.0	401	1.0	405	1.0	12	12.0	5.0	5.0	10.0	100.0	100.0	100.0	0.0	4.0	0.0	1.0	100.0	40.0	30.0	50.0
1	0.0	1.0	400.0	401	2.0	410	1.0	12	12.0	5.0	5.0	10.0	100.0	100.0	100.0	0.0	0.0	4.0	0.0	100.0	40.0	30.0	30.0
1	0.0	1.0	400.0	401	1.0	412	1.0	13	13.0	130.0	0.0	130.0	95.0	100.0	97.5	0.0	1.0	3.0	0.0	100.0	40.0	-90.0	155.0
1	0.0	1.0	400.0	401	2.0	407	1.0	13	13.0	0.0	130.0	130.0	100.0	95.0	97.5	0.0	3.0	1.0	1.0	100.0	40.0	-90.0	45.0
1	0.0	1.0	400.0	401	1.0	411	1.0	14	14.0	0.0	0.0	0.0	100.0	100.0	100.0	0.0	2.0	2.0	1.0	100.0	40.0	40.0	45.0
1	0.0	1.0	400.0	401	2.0	409	1.0	14	14.0	0.0	0.0	0.0	100.0	100.0	100.0	0.0	2.0	2.0	0.0	100.0	40.0	40.0	25.0
1	0.0	1.0	400.0	401	1.0	407	1.0	15	15.0	0.0	0.0	0.0	100.0	100.0	100.0	0.0	3.0	1.0	1.0	100.0	40.0	40.0	45.0
1	0.0	1.0	400.0	401	2.0	411	1.0	15	15.0	0.0	0.0	0.0	100.0	100.0	100.0	0.0	1.0	3.0	0.0	100.0	40.0	40.0	25.0
0	0.0	0.0	400.0	401	1.0	405	2.0	1	16.0				100.0	100.0	100.0	0.0	3.0	1.0	1.0	100.0	40.0	40.0	45.0
0	0.0	0.0	400.0	401	2.0	410	2.0	1	16.0				100.0	100.0	100.0	0.0	1.0	3.0	0.0	100.0	40.0	40.0	25.0
0	0.0	0.0	400.0	401	1.0	410	2.0	2	17.0				100.0	100.0	100.0	0.0	3.0	1.0	1.0	100.0	40.0	40.0	45.0
0	0.0	0.0	400.0	401	2.0	408	2.0	2	17.0				100.0	100.0	100.0	0.0	1.0	3.0	0.0	100.0	40.0	40.0	25.0
0	0.0	0.0	400.0	401	1.0	411	2.0	3	18.0				100.0	100.0	100.0	0.0	4.0	0.0	1.0	100.0	40.0	40.0	45.0
0	0.0	0.0	400.0	401	2.0	410	2.0	3	18.0				100.0	100.0	100.0	0.0	0.0	4.0	0.0	100.0	40.0	40.0	25.0
0	0.0	0.0	400.0	401	1.0	408	2.0	4	19.0				100.0	100.0	100.0	0.0	4.0	0.0	1.0	100.0	40.0	40.0	45.0
0	0.0	0.0	400.0	401	2.0	407	2.0	4	19.0				100.0	100.0	100.0	0.0	0.0	4.0	0.0	100.0	40.0	40.0	25.0
0	0.0	0.0	400.0	401	1.0	407	2.0	5	20.0				100.0	100.0	100.0	0.0	3.0	1.0	1.0	100.0	40.0	40.0	45.0
0	0.0	0.0	400.0	401	2.0	408	2.0	5	20.0				100.0	100.0	100.0	0.0	1.0	3.0	0.0	100.0	40.0	40.0	25.0
0	0.0	0.0	400.0	401	1.0	412	2.0	6	21.0				100.0	100.0	100.0	0.0	3.0	1.0	1.0	100.0	40.0	40.0	45.0
0	0.0	0.0	400.0	401	2.0	411	2.0	6	21.0				100.0	100.0	100.0	0.0	1.0	3.0	0.0	100.0	40.0	40.0	25.0
0	0.0	0.0	400.0	401	1.0	408	2.0	7	22.0				100.0	100.0	100.0	0.0	4.0	0.0	1.0	100.0	40.0	40.0	45.0
0	0.0	0.0	400.0	401	2.0	406	2.0	7	22.0				100.0	100.0	100.0	0.0	0.0	4.0	0.0	100.0	40.0	40.0	25.0
0	0.0	0.0	400.0	401	1.0	410	2.0	8	23.0				100.0	100.0	100.0	0.0	2.0	2.0	1.0	100.0	40.0	40.0	45.0
0	0.0	0.0	400.0	401	2.0	411	2.0	8	23.0				100.0	100.0	100.0	0.0	2.0	2.0	0.0	100.0	40.0	40.0	25.0
0	0.0	0.0	400.0	401	1.0	408	2.0	9	24.0				100.0	100.0	100.0	0.0	3.0	1.0	1.0	100.0	40.0	40.0	45.0
0	0.0	0.0	400.0	401	2.0	405	2.0	9	24.0				100.0	100.0	100.0	0.0	1.0	3.0	0.0	100.0	40.0	40.0	25.0
0	0.0	0.0	400.0	401	1.0	412	2.0	10	25.0				100.0	100.0	100.0	0.0	3.0	1.0	1.0	100.0	40.0	40.0	45.0
0	0.0	0.0	400.0	401	2.0	408	2.0	10	25.0				100.0	100.0	100.0	0.0	1.0	3.0	0.0	100.0	40.0	40.0	25.0
0	0.0	0.0	400.0	401	1.0	411	2.0	11	26.0				100.0	100.0	100.0	0.0	3.0	1.0	1.0	100.0	40.0	40.0	45.0
0	0.0	0.0	400.0	401	2.0	410	2.0	11	26.0				100.0	100.0	100.0	0.0	1.0	3.0	0.0	100.0	40.0	40.0	25.0
0	0.0	0.0	400.0	401	1.0	410	2.0	12	27.0				100.0	100.0	100.0	0.0	2.0	2.0	0.0	100.0	40.0	40.0	25.0
0	0.0	0.0	400.0	401	2.0	412	2.0	12	27.0				100.0	100.0	100.0	0.0	2.0	2.0	1.0	100.0	40.0	40.0	45.0
0	0.0	0.0	400.0	401	1.0	407	2.0	13	28.0				100.0	100.0	100.0	0.0	3.0	1.0	1.0	100.0	40.0	40.0	45.0
0	0.0	0.0	400.0	401	2.0	408	2.0	13	28.0				100.0	100.0	100.0	0.0	1.0	3.0	0.0	100.0	40.0	40.0	25.0
0	0.0	0.0	400.0	401	1.0	409	2.0	14	29.0				100.0	100.0	100.0	0.0	3.0	1.0	1.0	100.0	40.0	40.0	45.0
0	0.0	0.0	400.0	401	2.0	410	2.0	14	29.0				100.0	100.0	100.0	0.0	1.0	3.0	0.0	100.0	40.0	40.0	25.0
0	0.0	0.0	400.0	401	1.0	411	2.0	15	30.0				100.0	100.0	100.0	0.0	2.0	2.0	1.0	100.0	40.0	40.0	45.0
0	0.0	0.0	400.0	401	2.0	412	2.0	15	30.0				100.0	100.0	100.0	0.0	2.0	2.0	0.0	100.0	40.0	40.0	25.0
1	0.0	1.0	500.0	501	1.0	506	1.0	1	1.0	21.0	0.0	21.0	100.0	100.0	100.0	1.0	3.0	1.0	1.0	100.0	40.0	19.0	65.0
1	0.0	1.0	500.0	501	2.0	512	1.0	1	1.0	0.0	21.0	21.0	100.0	100.0	100.0	0.0	1.0	3.0	0.0	100.0	40.0	19.0	25.0
1	0.0	1.0	500.0	501	1.0	511	1.0	2	2.0	0.0	0.0	0.0	100.0	100.0	100.0	0.0	3.0	1.0	1.0	100.0	40.0	40.0	45.0
1	0.0	1.0	500.0	501	2.0	505	1.0	2	2.0	0.0	0.0	0.0	100.0	100.0	100.0	0.0	1.0	3.0	0.0	100.0	40.0	40.0	25.0
1	0.0	1.0	500.0	501	1.0	506	1.0	3	3.0	10.0	5.0	15.0	100.0	100.0	100.0	0.0	4.0	0.0	1.0	100.0	40.0	25.0	55.0
1	0.0	1.0	500.0	501	2.0	511	1.0	3	3.0	5.0	10.0	15.0	100.0	100.0	100.0	0.0	0.0	4.0	0.0	100.0	40.0	25.0	30.0
1	0.0	1.0	500.0	501	1.0	507	1.0	4	4.0	0.0	0.0	0.0	100.0	50.0	75.0	0.0	3.0	1.0	1.0	100.0	40.0	40.0	45.0
1	0.0	1.0	500.0	501	2.0	509	1.0	4	4.0	0.0	0.0	0.0	50.0	100.0	75.0	0.0	1.0	3.0	0.0	100.0	40.0	40.0	25.0
1	0.0	1.0	500.0	501	1.0	511	1.0	5	5.0	10.0	0.0	10.0	100.0	100.0	100.0	0.0	3.0	1.0	1.0	100.0	40.0	30.0	55.0
1	0.0	1.0	500.0	501	2.0	507	1.0	5	5.0	0.0	10.0	10.0	100.0	100.0	100.0	0.0	1.0	3.0	0.0	100.0	40.0	30.0	25.0
1	0.0	1.0	500.0	501	1.0	512	1.0	6	6.0	0.0	0.0	0.0	100.0	100.0	100.0	0.0	4.0	0.0	1.0	100.0	40.0	40.0	45.0
1	0.0	1.0	500.0	501	2.0	511	1.0	6	6.0	0.0	0.0	0.0	100.0	100.0	100.0	0.0	0.0	4.0	0.0	100.0	40.0	40.0	25.0
1	0.0	1.0	500.0	501	1.0	511	1.0	7	7.0	10.0	0.0	10.0	100.0	100.0	100.0	0.0	3.0	1.0	1.0	100.0	40.0	30.0	55.0
1	0.0	1.0	500.0	501	2.0	512	1.0	7	7.0	0.0	10.0	10.0	100.0	100.0	100.0	0.0	1.0	3.0	0.0	100.0	40.0	30.0	25.0
1	0.0	1.0	500.0	501	1.0	510	1.0	8	8.0	0.0	0.0	0.0	100.0	100.0	100.0	0.0	3.0	1.0	1.0	100.0	40.0	40.0	45.0
1	0.0	1.0	500.0	501	2.0	506	1.0	8	8.0	0.0	0.0	0.0	100.0	100.0	100.0	0.0	1.0	3.0	0.0	100.0	40.0	40.0	25.0
1	0.0	1.0	500.0	501	1.0	509	1.0	9	9.0	0.0	0.0	0.0	100.0	100.0	100.0	0.0	3.0	1.0	1.0	100.0	40.0	40.0	45.0
1	0.0	1.0	500.0	501	2.0	511	1.0	9	9.0	0.0	0.0	0.0	100.0	100.0	100.0	0.0	1.0	3.0	0.0	100.0	40.0	40.0	25.0
1	0.0	1.0	500.0	501	1.0	511	1.0	10	10.0	0.0	0.0	0.0	100.0	100.0	100.0	0.0	2.0	2.0	0.0	100.0	40.0	40.0	25.0
1	0.0	1.0	500.0	501	2.0	510	1.0	10	10.0	0.0	0.0	0.0	100.0	100.0	100.0	0.0	2.0	2.0	1.0	100.0	40.0	40.0	45.0
1	0.0	1.0	500.0	501	1.0	509	1.0	11	11.0	0.0	0.0	0.0	90.0	100.0	95.0	0.0	2.0	2.0	0.0	100.0	40.0	40.0	25.0
1	0.0	1.0	500.0	501	2.0	512	1.0	11	11.0	0.0	0.0	0.0	100.0	90.0	95.0	0.0	2.0	2.0	1.0	100.0	40.0	40.0	45.0
1	0.0	1.0	500.0	501	1.0	505	1.0	12	12.0	0.0	0.0	0.0	75.0	90.0	82.5	1.0	1.0	3.0	0.0	90.0	37.0	49.0	24.0
1	0.0	1.0	500.0	501	2.0	511	1.0	12	12.0	0.0	0.0	0.0	90.0	75.0	82.5	0.0	3.0	1.0	1.0	90.0	37.0	49.0	45.0
1	0.0	1.0	500.0	501	1.0	512	1.0	13	13.0	25.0	0.0	25.0	100.0	100.0	100.0	0.0	3.0	1.0	1.0	100.0	40.0	15.0	70.0
1	0.0	1.0	500.0	501	2.0	507	1.0	13	13.0	0.0	25.0	25.0	100.0	100.0	100.0	0.0	1.0	3.0	0.0	100.0	40.0	15.0	25.0
1	0.0	1.0	500.0	501	1.0	508	1.0	14	14.0	0.0	0.0	0.0	100.0	100.0	100.0	0.0	3.0	1.0	1.0	100.0	40.0	40.0	45.0
1	0.0	1.0	500.0	501	2.0	509	1.0	14	14.0	0.0	0.0	0.0	100.0	100.0	100.0	0.0	1.0	3.0	0.0	100.0	40.0	40.0	25.0
1	0.0	1.0	500.0	501	1.0	511	1.0	15	15.0	15.0	20.0	35.0	100.0	100.0	100.0	0.0	2.0	2.0	0.0	100.0	40.0	5.0	40.0
1	0.0	1.0	500.0	501	2.0	508	1.0	15	15.0	20.0	15.0	35.0	100.0	100.0	100.0	0.0	2.0	2.0	1.0	100.0	40.0	5.0	65.0
0	0.0	0.0	500.0	501	1.0	509	2.0	1	16.0				100.0	100.0	100.0	0.0	3.0	1.0	1.0	100.0	40.0	40.0	45.0
0	0.0	0.0	500.0	501	2.0	510	2.0	1	16.0				100.0	100.0	100.0	0.0	1.0	3.0	0.0	100.0	40.0	40.0	25.0
0	0.0	0.0	500.0	501	1.0	511	2.0	2	17.0				100.0	100.0	100.0	0.0	2.0	2.0	0.0	100.0	40.0	40.0	25.0
0	0.0	0.0	500.0	501	2.0	508	2.0	2	17.0				100.0	100.0	100.0	0.0	2.0	2.0	1.0	100.0	40.0	40.0	45.0
0	0.0	0.0	500.0	501	1.0	512	2.0	3	18.0				100.0	90.0	95.0	0.0	3.0	1.0	1.0	100.0	40.0	40.0	45.0
0	0.0	0.0	500.0	501	2.0	505	2.0	3	18.0				90.0	100.0	95.0	0.0	1.0	3.0	0.0	100.0	40.0	40.0	25.0
0	0.0	0.0	500.0	501	1.0	511	2.0	4	19.0				100.0	95.0	97.5	0.0	3.0	1.0	1.0	100.0	40.0	40.0	45.0
0	0.0	0.0	500.0	501	2.0	506	2.0	4	19.0				95.0	100.0	97.5	0.0	1.0	3.0	0.0	100.0	40.0	40.0	25.0
0	0.0	0.0	500.0	501	1.0	510	2.0	5	20.0				100.0	90.0	95.0	2.0	3.0	1.0	1.0	100.0	40.0	40.0	43.0
0	0.0	0.0	500.0	501	2.0	505	2.0	5	20.0				90.0	100.0	95.0	0.0	1.0	3.0	0.0	100.0	40.0	40.0	25.0
0	0.0	0.0	500.0	501	1.0	506	2.0	6	21.0				100.0	100.0	100.0	0.0	2.0	2.0	0.0	100.0	40.0	40.0	25.0
0	0.0	0.0	500.0	501	2.0	512	2.0	6	21.0				100.0	100.0	100.0	0.0	2.0	2.0	1.0	100.0	40.0	40.0	45.0
0	0.0	0.0	500.0	501	1.0	509	2.0	7	22.0				100.0	100.0	100.0	1.0	3.0	1.0	1.0	100.0	40.0	40.0	44.0
0	0.0	0.0	500.0	501	2.0	505	2.0	7	22.0				100.0	100.0	100.0	0.0	1.0	3.0	0.0	100.0	40.0	40.0	25.0
0	0.0	0.0	500.0	501	1.0	507	2.0	8	23.0				100.0	100.0	100.0	0.0	2.0	2.0	0.0	100.0	40.0	40.0	25.0
0	0.0	0.0	500.0	501	2.0	509	2.0	8	23.0				100.0	100.0	100.0	0.0	2.0	2.0	1.0	100.0	40.0	40.0	45.0
0	0.0	0.0	500.0	501	1.0	506	2.0	9	24.0				100.0	100.0	100.0	0.0	2.0	2.0	1.0	100.0	40.0	40.0	45.0
0	0.0	0.0	500.0	501	2.0	512	2.0	9	24.0				100.0	100.0	100.0	0.0	2.0	2.0	0.0	100.0	40.0	40.0	25.0
0	0.0	0.0	500.0	501	1.0	509	2.0	10	25.0				100.0	100.0	100.0	1.0	2.0	2.0	0.0	100.0	40.0	40.0	24.0
0	0.0	0.0	500.0	501	2.0	511	2.0	10	25.0				100.0	100.0	100.0	0.0	2.0	2.0	1.0	100.0	40.0	40.0	45.0
0	0.0	0.0	500.0	501	1.0	508	2.0	11	26.0				100.0	100.0	100.0	0.0	3.0	1.0	1.0	100.0	40.0	40.0	45.0
0	0.0	0.0	500.0	501	2.0	505	2.0	11	26.0				100.0	100.0	100.0	0.0	1.0	3.0	0.0	100.0	40.0	40.0	25.0
0	0.0	0.0	500.0	501	1.0	505	2.0	12	27.0				100.0	100.0	100.0	0.0	1.0	3.0	0.0	100.0	40.0	40.0	25.0
0	0.0	0.0	500.0	501	2.0	512	2.0	12	27.0				100.0	100.0	100.0	0.0	3.0	1.0	1.0	100.0	40.0	40.0	45.0
0	0.0	0.0	500.0	501	1.0	507	2.0	13	28.0				100.0	100.0	100.0	0.0	3.0	1.0	1.0	100.0	40.0	40.0	45.0
0	0.0	0.0	500.0	501	2.0	505	2.0	13	28.0				100.0	100.0	100.0	0.0	1.0	3.0	0.0	100.0	40.0	40.0	25.0
0	0.0	0.0	500.0	501	1.0	512	2.0	14	29.0				100.0	100.0	100.0	0.0	1.0	3.0	0.0	100.0	40.0	40.0	25.0
0	0.0	0.0	500.0	501	2.0	506	2.0	14	29.0				100.0	100.0	100.0	0.0	3.0	1.0	1.0	100.0	40.0	40.0	45.0
0	0.0	0.0	500.0	501	1.0	505	2.0	15	30.0				100.0	100.0	100.0	0.0	3.0	1.0	1.0	100.0	40.0	40.0	45.0
0	0.0	0.0	500.0	501	2.0	512	2.0	15	30.0				100.0	100.0	100.0	0.0	1.0	3.0	0.0	100.0	40.0	40.0	25.0
1	0.0	1.0	600.0	601	1.0	608	1.0	1	1.0	20.0	15.0	35.0	15.0	60.0	37.5	0.0	1.0	3.0	0.0	60.0	28.0	41.0	45.0
1	0.0	1.0	600.0	601	2.0	606	1.0	1	1.0	15.0	20.0	35.0	60.0	15.0	37.5	0.0	3.0	1.0	1.0	60.0	28.0	41.0	60.0
1	0.0	1.0	600.0	601	1.0	606	1.0	2	2.0	50.0	50.0	100.0	100.0	100.0	100.0	1.0	3.0	1.0	1.0	100.0	40.0	-60.0	94.0
1	0.0	1.0	600.0	601	2.0	610	1.0	2	2.0	50.0	50.0	100.0	100.0	100.0	100.0	0.0	1.0	3.0	0.0	100.0	40.0	-60.0	75.0
1	0.0	1.0	600.0	601	1.0	605	1.0	3	3.0	10.0	15.0	25.0	100.0	100.0	100.0	0.0	3.0	1.0	1.0	100.0	40.0	15.0	55.0
1	0.0	1.0	600.0	601	2.0	608	1.0	3	3.0	15.0	10.0	25.0	100.0	100.0	100.0	0.0	1.0	3.0	0.0	100.0	40.0	15.0	40.0
1	0.0	1.0	600.0	601	1.0	608	1.0	4	4.0	0.0	0.0	0.0	100.0	100.0	100.0	1.0	2.0	2.0	0.0	100.0	40.0	40.0	24.0
1	0.0	1.0	600.0	601	2.0	610	1.0	4	4.0	0.0	0.0	0.0	100.0	100.0	100.0	0.0	2.0	2.0	1.0	100.0	40.0	40.0	45.0
1	0.0	1.0	600.0	601	1.0	605	1.0	5	5.0	0.0	25.0	25.0	100.0	100.0	100.0	0.0	3.0	1.0	1.0	100.0	40.0	15.0	45.0
1	0.0	1.0	600.0	601	2.0	608	1.0	5	5.0	25.0	0.0	25.0	100.0	100.0	100.0	0.0	1.0	3.0	0.0	100.0	40.0	15.0	50.0
1	0.0	1.0	600.0	601	1.0	607	1.0	6	6.0	0.0	0.0	0.0	100.0	100.0	100.0	0.0	3.0	1.0	1.0	100.0	40.0	40.0	45.0
1	0.0	1.0	600.0	601	2.0	606	1.0	6	6.0	0.0	0.0	0.0	100.0	100.0	100.0	0.0	1.0	3.0	0.0	100.0	40.0	40.0	25.0
1	0.0	1.0	600.0	601	1.0	610	1.0	7	7.0	1.0	0.0	1.0	100.0	100.0	100.0	0.0	3.0	1.0	1.0	100.0	40.0	39.0	46.0
1	0.0	1.0	600.0	601	2.0	605	1.0	7	7.0	0.0	1.0	1.0	100.0	100.0	100.0	0.0	1.0	3.0	0.0	100.0	40.0	39.0	25.0
1	0.0	1.0	600.0	601	1.0	606	1.0	8	8.0	25.0	0.0	25.0	90.0	100.0	95.0	1.0	3.0	1.0	1.0	90.0	37.0	24.0	69.0
1	0.0	1.0	600.0	601	2.0	608	1.0	8	8.0	0.0	25.0	25.0	100.0	90.0	95.0	0.0	1.0	3.0	0.0	90.0	37.0	24.0	25.0
1	0.0	1.0	600.0	601	1.0	609	1.0	9	9.0	25.0	0.0	25.0	100.0	85.0	92.5	0.0	3.0	1.0	1.0	100.0	40.0	15.0	70.0
1	0.0	1.0	600.0	601	2.0	606	1.0	9	9.0	0.0	25.0	25.0	85.0	100.0	92.5	0.0	1.0	3.0	0.0	100.0	40.0	15.0	25.0
1	0.0	1.0	600.0	601	1.0	606	1.0	10	10.0	0.0	0.0	0.0	100.0	100.0	100.0	0.0	1.0	3.0	0.0	100.0	40.0	40.0	25.0
1	0.0	1.0	600.0	601	2.0	607	1.0	10	10.0	0.0	0.0	0.0	100.0	100.0	100.0	0.0	3.0	1.0	1.0	100.0	40.0	40.0	45.0
1	0.0	1.0	600.0	601	1.0	609	1.0	11	11.0	0.0	0.0	0.0	100.0	100.0	100.0	0.0	3.0	1.0	1.0	100.0	40.0	40.0	45.0
1	0.0	1.0	600.0	601	2.0	606	1.0	11	11.0	0.0	0.0	0.0	100.0	100.0	100.0	0.0	1.0	3.0	0.0	100.0	40.0	40.0	25.0
1	0.0	1.0	600.0	601	1.0	608	1.0	12	12.0	90.0	0.0	90.0	100.0	100.0	100.0	0.0	1.0	3.0	0.0	100.0	40.0	-50.0	115.0
1	0.0	1.0	600.0	601	2.0	607	1.0	12	12.0	0.0	90.0	90.0	100.0	100.0	100.0	0.0	3.0	1.0	1.0	100.0	40.0	-50.0	45.0
1	0.0	1.0	600.0	601	1.0	606	1.0	13	13.0	1.0	2.0	3.0	90.0	100.0	95.0	0.0	1.0	3.0	0.0	100.0	40.0	37.0	26.0
1	0.0	1.0	600.0	601	2.0	608	1.0	13	13.0	2.0	1.0	3.0	100.0	90.0	95.0	0.0	3.0	1.0	1.0	100.0	40.0	37.0	47.0
1	0.0	1.0	600.0	601	1.0	608	1.0	14	14.0	0.0	2.0	2.0	100.0	100.0	100.0	0.0	2.0	2.0	0.0	100.0	40.0	38.0	25.0
1	0.0	1.0	600.0	601	2.0	606	1.0	14	14.0	2.0	0.0	2.0	100.0	100.0	100.0	0.0	2.0	2.0	1.0	100.0	40.0	38.0	47.0
1	0.0	1.0	600.0	601	1.0	607	1.0	15	15.0	0.0	0.0	0.0	100.0	100.0	100.0	0.0	3.0	1.0	1.0	100.0	40.0	40.0	45.0
1	0.0	1.0	600.0	601	2.0	608	1.0	15	15.0	0.0	0.0	0.0	100.0	100.0	100.0	0.0	1.0	3.0	0.0	100.0	40.0	40.0	25.0
0	0.0	0.0	600.0	601	1.0	608	2.0	1	16.0				100.0	100.0	100.0	0.0	2.0	2.0	1.0	100.0	40.0	40.0	45.0
0	0.0	0.0	600.0	601	2.0	610	2.0	1	16.0				100.0	100.0	100.0	0.0	2.0	2.0	0.0	100.0	40.0	40.0	25.0
0	0.0	0.0	600.0	601	1.0	610	2.0	2	17.0				100.0	100.0	100.0	0.0	3.0	1.0	1.0	100.0	40.0	40.0	45.0
0	0.0	0.0	600.0	601	2.0	605	2.0	2	17.0				100.0	100.0	100.0	0.0	1.0	3.0	0.0	100.0	40.0	40.0	25.0
0	0.0	0.0	600.0	601	1.0	605	2.0	3	18.0				100.0	100.0	100.0	0.0	4.0	0.0	1.0	100.0	40.0	40.0	45.0
0	0.0	0.0	600.0	601	2.0	610	2.0	3	18.0				100.0	100.0	100.0	0.0	0.0	4.0	0.0	100.0	40.0	40.0	25.0
0	0.0	0.0	600.0	601	1.0	610	2.0	4	19.0				100.0	100.0	100.0	0.0	2.0	2.0	1.0	100.0	40.0	40.0	45.0
0	0.0	0.0	600.0	601	2.0	605	2.0	4	19.0				100.0	100.0	100.0	0.0	2.0	2.0	0.0	100.0	40.0	40.0	25.0
0	0.0	0.0	600.0	601	1.0	608	2.0	5	20.0				100.0	100.0	100.0	0.0	2.0	2.0	1.0	100.0	40.0	40.0	45.0
0	0.0	0.0	600.0	601	2.0	607	2.0	5	20.0				100.0	100.0	100.0	0.0	2.0	2.0	0.0	100.0	40.0	40.0	25.0
0	0.0	0.0	600.0	601	1.0	605	2.0	6	21.0				100.0	100.0	100.0	0.0	1.0	3.0	0.0	100.0	40.0	40.0	25.0
0	0.0	0.0	600.0	601	2.0	610	2.0	6	21.0				100.0	100.0	100.0	0.0	3.0	1.0	1.0	100.0	40.0	40.0	45.0
0	0.0	0.0	600.0	601	1.0	610	2.0	7	22.0				100.0	100.0	100.0	0.0	3.0	1.0	1.0	100.0	40.0	40.0	45.0
0	0.0	0.0	600.0	601	2.0	605	2.0	7	22.0				100.0	100.0	100.0	0.0	1.0	3.0	0.0	100.0	40.0	40.0	25.0
0	0.0	0.0	600.0	601	1.0	605	2.0	8	23.0				100.0	100.0	100.0	0.0	2.0	2.0	1.0	100.0	40.0	40.0	45.0
0	0.0	0.0	600.0	601	2.0	610	2.0	8	23.0				100.0	100.0	100.0	0.0	2.0	2.0	0.0	100.0	40.0	40.0	25.0
0	0.0	0.0	600.0	601	1.0	610	2.0	9	24.0				100.0	100.0	100.0	0.0	2.0	2.0	0.0	100.0	40.0	40.0	25.0
0	0.0	0.0	600.0	601	2.0	609	2.0	9	24.0				100.0	100.0	100.0	0.0	2.0	2.0	1.0	100.0	40.0	40.0	45.0
0	0.0	0.0	600.0	601	1.0	607	2.0	10	25.0				100.0	100.0	100.0	0.0	3.0	1.0	1.0	100.0	40.0	40.0	45.0
0	0.0	0.0	600.0	601	2.0	610	2.0	10	25.0				100.0	100.0	100.0	0.0	1.0	3.0	0.0	100.0	40.0	40.0	25.0
0	0.0	0.0	600.0	601	1.0	610	2.0	11	26.0				100.0	100.0	100.0	0.0	3.0	1.0	1.0	100.0	40.0	40.0	45.0
0	0.0	0.0	600.0	601	2.0	607	2.0	11	26.0				100.0	100.0	100.0	0.0	1.0	3.0	0.0	100.0	40.0	40.0	25.0
0	0.0	0.0	600.0	601	1.0	606	2.0	12	27.0				100.0	100.0	100.0	0.0	1.0	3.0	0.0	100.0	40.0	40.0	25.0
0	0.0	0.0	600.0	601	2.0	609	2.0	12	27.0				100.0	100.0	100.0	0.0	3.0	1.0	1.0	100.0	40.0	40.0	45.0
0	0.0	0.0	600.0	601	1.0	609	2.0	13	28.0				100.0	100.0	100.0	0.0	2.0	2.0	1.0	100.0	40.0	40.0	45.0
0	0.0	0.0	600.0	601	2.0	610	2.0	13	28.0				100.0	100.0	100.0	0.0	2.0	2.0	0.0	100.0	40.0	40.0	25.0
0	0.0	0.0	600.0	601	1.0	607	2.0	14	29.0				100.0	100.0	100.0	0.0	3.0	1.0	1.0	100.0	40.0	40.0	45.0
0	0.0	0.0	600.0	601	2.0	605	2.0	14	29.0				100.0	100.0	100.0	0.0	1.0	3.0	0.0	100.0	40.0	40.0	25.0
0	0.0	0.0	600.0	601	1.0	605	2.0	15	30.0				100.0	100.0	100.0	0.0	2.0	2.0	0.0	100.0	40.0	40.0	25.0
0	0.0	0.0	600.0	601	2.0	607	2.0	15	30.0				100.0	100.0	100.0	0.0	2.0	2.0	1.0	100.0	40.0	40.0	45.0
1	1.0	11.0	700.0	701	1.0	705	1.0	1	1.0	5.0	5.0	10.0	50.0	50.0	50.0	1.0	1.0	3.0	0.0	50.0	25.0	75.0	29.0
1	1.0	11.0	700.0	701	2.0	706	1.0	1	1.0	5.0	5.0	10.0	50.0	50.0	50.0	0.0	3.0	1.0	1.0	50.0	25.0	75.0	50.0
1	1.0	11.0	700.0	701	1.0	705	1.0	2	2.0	10.0	10.0	20.0	75.0	75.0	75.0	0.0	4.0	0.0	1.0	75.0	32.5	42.5	55.0
1	1.0	11.0	700.0	701	2.0	706	1.0	2	2.0	10.0	10.0	20.0	75.0	75.0	75.0	0.0	0.0	4.0	0.0	75.0	32.5	42.5	35.0
1	1.0	11.0	700.0	701	1.0	705	1.0	3	3.0	0.0	0.0	0.0	100.0	95.0	97.5	0.0	3.0	1.0	1.0	100.0	40.0	40.0	45.0
1	1.0	11.0	700.0	701	2.0	706	1.0	3	3.0	0.0	0.0	0.0	95.0	100.0	97.5	0.0	1.0	3.0	0.0	100.0	40.0	40.0	25.0
1	1.0	11.0	700.0	701	1.0	705	1.0	4	4.0	0.0	0.0	0.0	100.0	100.0	100.0	0.0	2.0	2.0	1.0	100.0	40.0	40.0	45.0
1	1.0	11.0	700.0	701	2.0	706	1.0	4	4.0	0.0	0.0	0.0	100.0	100.0	100.0	0.0	2.0	2.0	0.0	100.0	40.0	40.0	25.0
1	1.0	11.0	700.0	701	1.0	705	1.0	5	5.0	25.0	0.0	25.0	75.0	100.0	87.5	0.0	1.0	3.0	0.0	100.0	40.0	15.0	50.0
1	1.0	11.0	700.0	701	2.0	706	1.0	5	5.0	0.0	25.0	25.0	100.0	75.0	87.5	0.0	3.0	1.0	1.0	100.0	40.0	15.0	45.0
1	1.0	11.0	700.0	701	1.0	705	1.0	6	6.0	25.0	25.0	50.0	95.0	90.0	92.5	1.0	3.0	1.0	1.0	95.0	38.5	-5.5	69.0
1	1.0	11.0	700.0	701	2.0	706	1.0	6	6.0	25.0	25.0	50.0	90.0	95.0	92.5	0.0	1.0	3.0	0.0	95.0	38.5	-5.5	50.0
1	1.0	11.0	700.0	701	1.0	705	1.0	7	7.0	0.0	0.0	0.0	100.0	100.0	100.0	0.0	3.0	1.0	1.0	100.0	40.0	40.0	45.0
1	1.0	11.0	700.0	701	2.0	706	1.0	7	7.0	0.0	0.0	0.0	100.0	100.0	100.0	0.0	1.0	3.0	0.0	100.0	40.0	40.0	25.0
1	1.0	11.0	700.0	701	1.0	705	1.0	8	8.0	25.0	0.0	25.0	100.0	100.0	100.0	1.0	0.0	4.0	0.0	100.0	40.0	15.0	49.0
1	1.0	11.0	700.0	701	2.0	706	1.0	8	8.0	0.0	25.0	25.0	100.0	100.0	100.0	0.0	4.0	0.0	1.0	100.0	40.0	15.0	45.0
1	1.0	11.0	700.0	701	1.0	705	1.0	9	9.0	0.0	0.0	0.0	100.0	100.0	100.0	0.0	3.0	1.0	1.0	100.0	40.0	40.0	45.0
1	1.0	11.0	700.0	701	2.0	706	1.0	9	9.0	0.0	0.0	0.0	100.0	100.0	100.0	0.0	1.0	3.0	0.0	100.0	40.0	40.0	25.0
1	1.0	11.0	700.0	701	1.0	705	1.0	10	10.0	0.0	0.0	0.0	100.0	100.0	100.0	0.0	1.0	3.0	0.0	100.0	40.0	40.0	25.0
1	1.0	11.0	700.0	701	2.0	706	1.0	10	10.0	0.0	0.0	0.0	100.0	100.0	100.0	0.0	3.0	1.0	1.0	100.0	40.0	40.0	45.0
1	1.0	11.0	700.0	701	1.0	705	1.0	11	11.0	0.0	0.0	0.0	100.0	100.0	100.0	0.0	2.0	2.0	0.0	100.0	40.0	40.0	25.0
1	1.0	11.0	700.0	701	2.0	706	1.0	11	11.0	0.0	0.0	0.0	100.0	100.0	100.0	0.0	2.0	2.0	1.0	100.0	40.0	40.0	45.0
1	1.0	11.0	700.0	701	1.0	705	1.0	12	12.0	0.0	0.0	0.0	100.0	100.0	100.0	0.0	3.0	1.0	1.0	100.0	40.0	40.0	45.0
1	1.0	11.0	700.0	701	2.0	706	1.0	12	12.0	0.0	0.0	0.0	100.0	100.0	100.0	0.0	1.0	3.0	0.0	100.0	40.0	40.0	25.0
1	1.0	11.0	700.0	701	1.0	705	1.0	13	13.0	0.0	0.0	0.0	100.0	100.0	100.0	0.0	2.0	2.0	0.0	100.0	40.0	40.0	25.0
1	1.0	11.0	700.0	701	2.0	706	1.0	13	13.0	0.0	0.0	0.0	100.0	100.0	100.0	0.0	2.0	2.0	1.0	100.0	40.0	40.0	45.0
1	1.0	11.0	700.0	701	1.0	705	1.0	14	14.0	0.0	0.0	0.0	100.0	100.0	100.0	0.0	2.0	2.0	1.0	100.0	40.0	40.0	45.0
1	1.0	11.0	700.0	701	2.0	706	1.0	14	14.0	0.0	0.0	0.0	100.0	100.0	100.0	0.0	2.0	2.0	0.0	100.0	40.0	40.0	25.0
1	1.0	11.0	700.0	701	1.0	705	1.0	15	15.0	0.0	0.0	0.0	100.0	100.0	100.0	0.0	2.0	2.0	1.0	100.0	40.0	40.0	45.0
1	1.0	11.0	700.0	701	2.0	706	1.0	15	15.0	0.0	0.0	0.0	100.0	100.0	100.0	0.0	2.0	2.0	0.0	100.0	40.0	40.0	25.0
0	1.0	10.0	700.0	701	1.0	705	2.0	1	16.0				100.0	100.0	100.0	0.0	4.0	0.0	1.0	100.0	40.0	40.0	45.0
0	1.0	10.0	700.0	701	2.0	706	2.0	1	16.0				100.0	100.0	100.0	0.0	0.0	4.0	0.0	100.0	40.0	40.0	25.0
0	1.0	10.0	700.0	701	1.0	705	2.0	2	17.0				100.0	100.0	100.0	0.0	0.0	4.0	0.0	100.0	40.0	40.0	25.0
0	1.0	10.0	700.0	701	2.0	706	2.0	2	17.0				100.0	100.0	100.0	0.0	4.0	0.0	1.0	100.0	40.0	40.0	45.0
0	1.0	10.0	700.0	701	1.0	705	2.0	3	18.0				100.0	100.0	100.0	0.0	3.0	1.0	1.0	100.0	40.0	40.0	45.0
0	1.0	10.0	700.0	701	2.0	706	2.0	3	18.0				100.0	100.0	100.0	0.0	1.0	3.0	0.0	100.0	40.0	40.0	25.0
0	1.0	10.0	700.0	701	1.0	705	2.0	4	19.0				100.0	100.0	100.0	0.0	0.0	4.0	0.0	100.0	40.0	40.0	25.0
0	1.0	10.0	700.0	701	2.0	706	2.0	4	19.0				100.0	100.0	100.0	0.0	4.0	0.0	1.0	100.0	40.0	40.0	45.0
0	1.0	10.0	700.0	701	1.0	705	2.0	5	20.0				100.0	100.0	100.0	0.0	2.0	2.0	1.0	100.0	40.0	40.0	45.0
0	1.0	10.0	700.0	701	2.0	706	2.0	5	20.0				100.0	100.0	100.0	0.0	2.0	2.0	0.0	100.0	40.0	40.0	25.0
0	1.0	10.0	700.0	701	1.0	705	2.0	6	21.0				100.0	100.0	100.0	0.0	0.0	4.0	0.0	100.0	40.0	40.0	25.0
0	1.0	10.0	700.0	701	2.0	706	2.0	6	21.0				100.0	100.0	100.0	0.0	4.0	0.0	1.0	100.0	40.0	40.0	45.0
0	1.0	10.0	700.0	701	1.0	705	2.0	7	22.0				100.0	100.0	100.0	0.0	2.0	2.0	0.0	100.0	40.0	40.0	25.0
0	1.0	10.0	700.0	701	2.0	706	2.0	7	22.0				100.0	100.0	100.0	0.0	2.0	2.0	1.0	100.0	40.0	40.0	45.0
0	1.0	10.0	700.0	701	1.0	705	2.0	8	23.0				100.0	100.0	100.0	0.0	2.0	2.0	0.0	100.0	40.0	40.0	25.0
0	1.0	10.0	700.0	701	2.0	706	2.0	8	23.0				100.0	100.0	100.0	0.0	2.0	2.0	1.0	100.0	40.0	40.0	45.0
0	1.0	10.0	700.0	701	1.0	705	2.0	9	24.0				100.0	100.0	100.0	0.0	3.0	1.0	1.0	100.0	40.0	40.0	45.0
0	1.0	10.0	700.0	701	2.0	706	2.0	9	24.0				100.0	100.0	100.0	0.0	1.0	3.0	0.0	100.0	40.0	40.0	25.0
0	1.0	10.0	700.0	701	1.0	705	2.0	10	25.0				100.0	100.0	100.0	0.0	0.0	4.0	0.0	100.0	40.0	40.0	25.0
0	1.0	10.0	700.0	701	2.0	706	2.0	10	25.0				100.0	100.0	100.0	0.0	4.0	0.0	1.0	100.0	40.0	40.0	45.0
0	1.0	10.0	700.0	701	1.0	705	2.0	11	26.0				100.0	100.0	100.0	0.0	2.0	2.0	0.0	100.0	40.0	40.0	25.0
0	1.0	10.0	700.0	701	2.0	706	2.0	11	26.0				100.0	100.0	100.0	0.0	2.0	2.0	1.0	100.0	40.0	40.0	45.0
0	1.0	10.0	700.0	701	1.0	705	2.0	12	27.0				100.0	100.0	100.0	0.0	0.0	4.0	0.0	100.0	40.0	40.0	25.0
0	1.0	10.0	700.0	701	2.0	706	2.0	12	27.0				100.0	100.0	100.0	0.0	4.0	0.0	1.0	100.0	40.0	40.0	45.0
0	1.0	10.0	700.0	701	1.0	705	2.0	13	28.0				100.0	100.0	100.0	0.0	3.0	1.0	1.0	100.0	40.0	40.0	45.0
0	1.0	10.0	700.0	701	2.0	706	2.0	13	28.0				100.0	100.0	100.0	0.0	1.0	3.0	0.0	100.0	40.0	40.0	25.0
0	1.0	10.0	700.0	701	1.0	705	2.0	14	29.0				100.0	100.0	100.0	0.0	0.0	4.0	0.0	100.0	40.0	40.0	25.0
0	1.0	10.0	700.0	701	2.0	706	2.0	14	29.0				100.0	100.0	100.0	0.0	4.0	0.0	1.0	100.0	40.0	40.0	45.0
0	1.0	10.0	700.0	701	1.0	705	2.0	15	30.0				100.0	100.0	100.0	0.0	3.0	1.0	1.0	100.0	40.0	40.0	45.0
0	1.0	10.0	700.0	701	2.0	706	2.0	15	30.0				100.0	100.0	100.0	0.0	1.0	3.0	0.0	100.0	40.0	40.0	25.0
1	1.0	11.0	700.0	702	1.0	711	1.0	1	1.0	0.0	0.0	0.0	50.0	100.0	75.0	1.0	1.0	3.0	0.0	100.0	40.0	40.0	24.0
1	1.0	11.0	700.0	702	2.0	712	1.0	1	1.0	0.0	0.0	0.0	100.0	50.0	75.0	0.0	3.0	1.0	1.0	100.0	40.0	40.0	45.0
1	1.0	11.0	700.0	702	1.0	711	1.0	2	2.0	2.0	2.0	4.0	100.0	100.0	100.0	0.0	3.0	1.0	1.0	100.0	40.0	36.0	47.0
1	1.0	11.0	700.0	702	2.0	712	1.0	2	2.0	2.0	2.0	4.0	100.0	100.0	100.0	0.0	1.0	3.0	0.0	100.0	40.0	36.0	27.0
1	1.0	11.0	700.0	702	1.0	711	1.0	3	3.0	0.0	0.0	0.0	100.0	100.0	100.0	0.0	1.0	3.0	0.0	100.0	40.0	40.0	25.0
1	1.0	11.0	700.0	702	2.0	712	1.0	3	3.0	0.0	0.0	0.0	100.0	100.0	100.0	0.0	3.0	1.0	1.0	100.0	40.0	40.0	45.0
1	1.0	11.0	700.0	702	1.0	711	1.0	4	4.0	0.0	0.0	0.0	100.0	100.0	100.0	0.0	2.0	2.0	1.0	100.0	40.0	40.0	45.0
1	1.0	11.0	700.0	702	2.0	712	1.0	4	4.0	0.0	0.0	0.0	100.0	100.0	100.0	0.0	2.0	2.0	0.0	100.0	40.0	40.0	25.0
1	1.0	11.0	700.0	702	1.0	711	1.0	5	5.0	0.0	0.0	0.0	100.0	100.0	100.0	0.0	1.0	3.0	0.0	100.0	40.0	40.0	25.0
1	1.0	11.0	700.0	702	2.0	712	1.0	5	5.0	0.0	0.0	0.0	100.0	100.0	100.0	0.0	3.0	1.0	1.0	100.0	40.0	40.0	45.0
1	1.0	11.0	700.0	702	1.0	711	1.0	6	6.0	15.0	10.0	25.0	80.0	85.0	82.5	0.0	2.0	2.0	0.0	85.0	35.5	28.5	40.0
1	1.0	11.0	700.0	702	2.0	712	1.0	6	6.0	10.0	15.0	25.0	85.0	80.0	82.5	0.0	2.0	2.0	1.0	85.0	35.5	28.5	55.0
1	1.0	11.0	700.0	702	1.0	711	1.0	7	7.0	20.0	5.0	25.0	80.0	100.0	90.0	0.0	1.0	3.0	0.0	100.0	40.0	15.0	45.0
1	1.0	11.0	700.0	702	2.0	712	1.0	7	7.0	5.0	20.0	25.0	100.0	80.0	90.0	0.0	3.0	1.0	1.0	100.0	40.0	15.0	50.0
1	1.0	11.0	700.0	702	1.0	711	1.0	8	8.0	0.0	0.0	0.0	100.0	100.0	100.0	0.0	1.0	3.0	0.0	100.0	40.0	40.0	25.0
1	1.0	11.0	700.0	702	2.0	712	1.0	8	8.0	0.0	0.0	0.0	100.0	100.0	100.0	0.0	3.0	1.0	1.0	100.0	40.0	40.0	45.0
1	1.0	11.0	700.0	702	1.0	711	1.0	9	9.0	0.0	0.0	0.0	100.0	100.0	100.0	0.0	1.0	3.0	0.0	100.0	40.0	40.0	25.0
1	1.0	11.0	700.0	702	2.0	712	1.0	9	9.0	0.0	0.0	0.0	100.0	100.0	100.0	0.0	3.0	1.0	1.0	100.0	40.0	40.0	45.0
1	1.0	11.0	700.0	702	1.0	711	1.0	10	10.0	15.0	25.0	40.0	100.0	100.0	100.0	0.0	1.0	3.0	0.0	100.0	40.0	0.0	40.0
1	1.0	11.0	700.0	702	2.0	712	1.0	10	10.0	25.0	15.0	40.0	100.0	100.0	100.0	0.0	3.0	1.0	1.0	100.0	40.0	0.0	70.0
1	1.0	11.0	700.0	702	1.0	711	1.0	11	11.0	0.0	0.0	0.0	100.0	100.0	100.0	0.0	2.0	2.0	0.0	100.0	40.0	40.0	25.0
1	1.0	11.0	700.0	702	2.0	712	1.0	11	11.0	0.0	0.0	0.0	100.0	100.0	100.0	0.0	2.0	2.0	1.0	100.0	40.0	40.0	45.0
1	1.0	11.0	700.0	702	1.0	711	1.0	12	12.0	0.0	0.0	0.0	100.0	100.0	100.0	0.0	2.0	2.0	1.0	100.0	40.0	40.0	45.0
1	1.0	11.0	700.0	702	2.0	712	1.0	12	12.0	0.0	0.0	0.0	100.0	100.0	100.0	0.0	2.0	2.0	0.0	100.0	40.0	40.0	25.0
1	1.0	11.0	700.0	702	1.0	711	1.0	13	13.0	0.0	0.0	0.0	100.0	100.0	100.0	0.0	2.0	2.0	0.0	100.0	40.0	40.0	25.0
1	1.0	11.0	700.0	702	2.0	712	1.0	13	13.0	0.0	0.0	0.0	100.0	100.0	100.0	0.0	2.0	2.0	1.0	100.0	40.0	40.0	45.0
1	1.0	11.0	700.0	702	1.0	711	1.0	14	14.0	0.0	0.0	0.0	100.0	100.0	100.0	0.0	2.0	2.0	1.0	100.0	40.0	40.0	45.0
1	1.0	11.0	700.0	702	2.0	712	1.0	14	14.0	0.0	0.0	0.0	100.0	100.0	100.0	0.0	2.0	2.0	0.0	100.0	40.0	40.0	25.0
1	1.0	11.0	700.0	702	1.0	711	1.0	15	15.0	0.0	0.0	0.0	100.0	100.0	100.0	0.0	2.0	2.0	1.0	100.0	40.0	40.0	45.0
1	1.0	11.0	700.0	702	2.0	712	1.0	15	15.0	0.0	0.0	0.0	100.0	100.0	100.0	0.0	2.0	2.0	0.0	100.0	40.0	40.0	25.0
0	1.0	10.0	700.0	702	1.0	711	2.0	1	16.0				100.0	100.0	100.0	0.0	1.0	3.0	0.0	100.0	40.0	40.0	25.0
0	1.0	10.0	700.0	702	2.0	712	2.0	1	16.0				100.0	100.0	100.0	0.0	3.0	1.0	1.0	100.0	40.0	40.0	45.0
0	1.0	10.0	700.0	702	1.0	711	2.0	2	17.0				100.0	100.0	100.0	0.0	1.0	3.0	0.0	100.0	40.0	40.0	25.0
0	1.0	10.0	700.0	702	2.0	712	2.0	2	17.0				100.0	100.0	100.0	0.0	3.0	1.0	1.0	100.0	40.0	40.0	45.0
0	1.0	10.0	700.0	702	1.0	711	2.0	3	18.0				100.0	100.0	100.0	0.0	2.0	2.0	0.0	100.0	40.0	40.0	25.0
0	1.0	10.0	700.0	702	2.0	712	2.0	3	18.0				100.0	100.0	100.0	0.0	2.0	2.0	1.0	100.0	40.0	40.0	45.0
0	1.0	10.0	700.0	702	1.0	711	2.0	4	19.0				100.0	100.0	100.0	0.0	3.0	1.0	1.0	100.0	40.0	40.0	45.0
0	1.0	10.0	700.0	702	2.0	712	2.0	4	19.0				100.0	100.0	100.0	0.0	1.0	3.0	0.0	100.0	40.0	40.0	25.0
0	1.0	10.0	700.0	702	1.0	711	2.0	5	20.0				100.0	100.0	100.0	0.0	1.0	3.0	0.0	100.0	40.0	40.0	25.0
0	1.0	10.0	700.0	702	2.0	712	2.0	5	20.0				100.0	100.0	100.0	0.0	3.0	1.0	1.0	100.0	40.0	40.0	45.0
0	1.0	10.0	700.0	702	1.0	711	2.0	6	21.0				100.0	100.0	100.0	0.0	3.0	1.0	1.0	100.0	40.0	40.0	45.0
0	1.0	10.0	700.0	702	2.0	712	2.0	6	21.0				100.0	100.0	100.0	0.0	1.0	3.0	0.0	100.0	40.0	40.0	25.0
0	1.0	10.0	700.0	702	1.0	711	2.0	7	22.0				100.0	100.0	100.0	0.0	2.0	2.0	1.0	100.0	40.0	40.0	45.0
0	1.0	10.0	700.0	702	2.0	712	2.0	7	22.0				100.0	100.0	100.0	0.0	2.0	2.0	0.0	100.0	40.0	40.0	25.0
0	1.0	10.0	700.0	702	1.0	711	2.0	8	23.0				100.0	100.0	100.0	0.0	1.0	3.0	0.0	100.0	40.0	40.0	25.0
0	1.0	10.0	700.0	702	2.0	712	2.0	8	23.0				100.0	100.0	100.0	0.0	3.0	1.0	1.0	100.0	40.0	40.0	45.0
0	1.0	10.0	700.0	702	1.0	711	2.0	9	24.0				100.0	100.0	100.0	0.0	3.0	1.0	1.0	100.0	40.0	40.0	45.0
0	1.0	10.0	700.0	702	2.0	712	2.0	9	24.0				100.0	100.0	100.0	0.0	1.0	3.0	0.0	100.0	40.0	40.0	25.0
0	1.0	10.0	700.0	702	1.0	711	2.0	10	25.0				100.0	100.0	100.0	0.0	2.0	2.0	0.0	100.0	40.0	40.0	25.0
0	1.0	10.0	700.0	702	2.0	712	2.0	10	25.0				100.0	100.0	100.0	0.0	2.0	2.0	1.0	100.0	40.0	40.0	45.0
0	1.0	10.0	700.0	702	1.0	711	2.0	11	26.0				100.0	100.0	100.0	0.0	3.0	1.0	1.0	100.0	40.0	40.0	45.0
0	1.0	10.0	700.0	702	2.0	712	2.0	11	26.0				100.0	100.0	100.0	0.0	1.0	3.0	0.0	100.0	40.0	40.0	25.0
0	1.0	10.0	700.0	702	1.0	711	2.0	12	27.0				100.0	100.0	100.0	0.0	2.0	2.0	1.0	100.0	40.0	40.0	45.0
0	1.0	10.0	700.0	702	2.0	712	2.0	12	27.0				100.0	100.0	100.0	0.0	2.0	2.0	0.0	100.0	40.0	40.0	25.0
0	1.0	10.0	700.0	702	1.0	711	2.0	13	28.0				100.0	100.0	100.0	0.0	2.0	2.0	0.0	100.0	40.0	40.0	25.0
0	1.0	10.0	700.0	702	2.0	712	2.0	13	28.0				100.0	100.0	100.0	0.0	2.0	2.0	1.0	100.0	40.0	40.0	45.0
0	1.0	10.0	700.0	702	1.0	711	2.0	14	29.0				100.0	100.0	100.0	0.0	2.0	2.0	0.0	100.0	40.0	40.0	25.0
0	1.0	10.0	700.0	702	2.0	712	2.0	14	29.0				100.0	100.0	100.0	0.0	2.0	2.0	1.0	100.0	40.0	40.0	45.0
0	1.0	10.0	700.0	702	1.0	711	2.0	15	30.0				100.0	100.0	100.0	0.0	3.0	1.0	1.0	100.0	40.0	40.0	45.0
0	1.0	10.0	700.0	702	2.0	712	2.0	15	30.0				100.0	100.0	100.0	0.0	1.0	3.0	0.0	100.0	40.0	40.0	25.0
1	1.0	11.0	800.0	801	1.0	805	1.0	1	1.0	0.0	0.0	0.0	100.0	100.0	100.0	0.0	4.0	0.0	1.0	100.0	40.0	40.0	45.0
1	1.0	11.0	800.0	801	2.0	806	1.0	1	1.0	0.0	0.0	0.0	100.0	100.0	100.0	0.0	0.0	4.0	0.0	100.0	40.0	40.0	25.0
1	1.0	11.0	800.0	801	1.0	805	1.0	2	2.0	5.0	25.0	30.0	75.0	70.0	72.5	0.0	2.0	2.0	0.0	70.0	31.0	37.0	30.0
1	1.0	11.0	800.0	801	2.0	806	1.0	2	2.0	25.0	5.0	30.0	70.0	75.0	72.5	0.0	2.0	2.0	1.0	70.0	31.0	37.0	70.0
1	1.0	11.0	800.0	801	1.0	805	1.0	3	3.0	10.0	30.0	40.0	45.0	40.0	42.5	1.0	3.0	1.0	1.0	45.0	23.5	49.5	54.0
1	1.0	11.0	800.0	801	2.0	806	1.0	3	3.0	30.0	10.0	40.0	40.0	45.0	42.5	0.0	1.0	3.0	0.0	45.0	23.5	49.5	55.0
1	1.0	11.0	800.0	801	1.0	805	1.0	4	4.0	15.0	30.0	45.0	55.0	50.0	52.5	0.0	3.0	1.0	1.0	55.0	26.5	35.5	60.0
1	1.0	11.0	800.0	801	2.0	806	1.0	4	4.0	30.0	15.0	45.0	50.0	55.0	52.5	0.0	1.0	3.0	0.0	55.0	26.5	35.5	55.0
1	1.0	11.0	800.0	801	1.0	805	1.0	5	5.0	30.0	40.0	70.0	50.0	45.0	47.5	0.0	3.0	1.0	1.0	50.0	25.0	15.0	75.0
1	1.0	11.0	800.0	801	2.0	806	1.0	5	5.0	40.0	30.0	70.0	45.0	50.0	47.5	0.0	1.0	3.0	0.0	50.0	25.0	15.0	65.0
1	1.0	11.0	800.0	801	1.0	805	1.0	6	6.0	10.0	30.0	40.0	30.0	25.0	27.5	1.0	3.0	1.0	1.0	30.0	19.0	63.0	54.0
1	1.0	11.0	800.0	801	2.0	806	1.0	6	6.0	30.0	10.0	40.0	25.0	30.0	27.5	0.0	1.0	3.0	0.0	30.0	19.0	63.0	55.0
1	1.0	11.0	800.0	801	1.0	805	1.0	7	7.0	10.0	30.0	40.0	0.0	0.0	0.0	1.0	1.0	3.0	0.0	0.0	10.0	90.0	34.0
1	1.0	11.0	800.0	801	2.0	806	1.0	7	7.0	30.0	10.0	40.0	0.0	0.0	0.0	0.0	3.0	1.0	1.0	0.0	10.0	90.0	75.0
1	1.0	11.0	800.0	801	1.0	805	1.0	8	8.0	15.0	25.0	40.0	30.0	0.0	15.0	4.0	3.0	1.0	1.0	30.0	19.0	63.0	56.0
1	1.0	11.0	800.0	801	2.0	806	1.0	8	8.0	25.0	15.0	40.0	0.0	30.0	15.0	0.0	1.0	3.0	0.0	30.0	19.0	63.0	50.0
1	1.0	11.0	800.0	801	1.0	805	1.0	9	9.0	10.0	30.0	40.0	5.0	0.0	2.5	0.0	3.0	1.0	1.0	5.0	11.5	85.5	55.0
1	1.0	11.0	800.0	801	2.0	806	1.0	9	9.0	30.0	10.0	40.0	0.0	5.0	2.5	0.0	1.0	3.0	0.0	5.0	11.5	85.5	55.0
1	1.0	11.0	800.0	801	1.0	805	1.0	10	10.0	10.0	30.0	40.0	90.0	85.0	87.5	0.0	3.0	1.0	1.0	90.0	37.0	9.0	55.0
1	1.0	11.0	800.0	801	2.0	806	1.0	10	10.0	30.0	10.0	40.0	85.0	90.0	87.5	0.0	1.0	3.0	0.0	90.0	37.0	9.0	55.0
1	1.0	11.0	800.0	801	1.0	805	1.0	11	11.0	0.0	0.0	0.0	65.0	65.0	65.0	1.0	2.0	2.0	1.0	65.0	29.5	71.5	44.0
1	1.0	11.0	800.0	801	2.0	806	1.0	11	11.0	0.0	0.0	0.0	65.0	65.0	65.0	0.0	2.0	2.0	0.0	65.0	29.5	71.5	25.0
1	1.0	11.0	800.0	801	1.0	805	1.0	12	12.0	30.0	10.0	40.0	95.0	85.0	90.0	2.0	3.0	1.0	1.0	95.0	38.5	4.5	73.0
1	1.0	11.0	800.0	801	2.0	806	1.0	12	12.0	10.0	30.0	40.0	85.0	95.0	90.0	0.0	1.0	3.0	0.0	95.0	38.5	4.5	35.0
1	1.0	11.0	800.0	801	1.0	805	1.0	13	13.0	0.0	0.0	0.0	80.0	40.0	60.0	2.0	3.0	1.0	1.0	80.0	34.0	58.0	43.0
1	1.0	11.0	800.0	801	2.0	806	1.0	13	13.0	0.0	0.0	0.0	40.0	80.0	60.0	0.0	1.0	3.0	0.0	80.0	34.0	58.0	25.0
1	1.0	11.0	800.0	801	1.0	805	1.0	14	14.0	5.0	0.0	5.0	95.0	100.0	97.5	2.0	1.0	3.0	0.0	100.0	40.0	35.0	28.0
1	1.0	11.0	800.0	801	2.0	806	1.0	14	14.0	0.0	5.0	5.0	100.0	95.0	97.5	0.0	3.0	1.0	1.0	100.0	40.0	35.0	45.0
1	1.0	11.0	800.0	801	1.0	805	1.0	15	15.0	0.0	0.0	0.0	100.0	100.0	100.0	0.0	1.0	3.0	0.0	100.0	40.0	40.0	25.0
1	1.0	11.0	800.0	801	2.0	806	1.0	15	15.0	0.0	0.0	0.0	100.0	100.0	100.0	0.0	3.0	1.0	1.0	100.0	40.0	40.0	45.0
0	1.0	10.0	800.0	801	1.0	805	2.0	1	16.0				100.0	100.0	100.0	0.0	1.0	3.0	0.0	100.0	40.0	40.0	25.0
0	1.0	10.0	800.0	801	2.0	806	2.0	1	16.0				100.0	100.0	100.0	0.0	3.0	1.0	1.0	100.0	40.0	40.0	45.0
0	1.0	10.0	800.0	801	1.0	805	2.0	2	17.0				100.0	100.0	100.0	0.0	2.0	2.0	0.0	100.0	40.0	40.0	25.0
0	1.0	10.0	800.0	801	2.0	806	2.0	2	17.0				100.0	100.0	100.0	0.0	2.0	2.0	1.0	100.0	40.0	40.0	45.0
0	1.0	10.0	800.0	801	1.0	805	2.0	3	18.0				100.0	100.0	100.0	0.0	1.0	3.0	0.0	100.0	40.0	40.0	25.0
0	1.0	10.0	800.0	801	2.0	806	2.0	3	18.0				100.0	100.0	100.0	0.0	3.0	1.0	1.0	100.0	40.0	40.0	45.0
0	1.0	10.0	800.0	801	1.0	805	2.0	4	19.0				100.0	100.0	100.0	0.0	1.0	3.0	0.0	100.0	40.0	40.0	25.0
0	1.0	10.0	800.0	801	2.0	806	2.0	4	19.0				100.0	100.0	100.0	0.0	3.0	1.0	1.0	100.0	40.0	40.0	45.0
0	1.0	10.0	800.0	801	1.0	805	2.0	5	20.0				100.0	100.0	100.0	0.0	2.0	2.0	1.0	100.0	40.0	40.0	45.0
0	1.0	10.0	800.0	801	2.0	806	2.0	5	20.0				100.0	100.0	100.0	0.0	2.0	2.0	0.0	100.0	40.0	40.0	25.0
0	1.0	10.0	800.0	801	1.0	805	2.0	6	21.0				100.0	100.0	100.0	0.0	4.0	0.0	1.0	100.0	40.0	40.0	45.0
0	1.0	10.0	800.0	801	2.0	806	2.0	6	21.0				100.0	100.0	100.0	0.0	0.0	4.0	0.0	100.0	40.0	40.0	25.0
0	1.0	10.0	800.0	801	1.0	805	2.0	7	22.0				100.0	100.0	100.0	0.0	1.0	3.0	0.0	100.0	40.0	40.0	25.0
0	1.0	10.0	800.0	801	2.0	806	2.0	7	22.0				100.0	100.0	100.0	0.0	3.0	1.0	1.0	100.0	40.0	40.0	45.0
0	1.0	10.0	800.0	801	1.0	805	2.0	8	23.0				100.0	100.0	100.0	0.0	2.0	2.0	0.0	100.0	40.0	40.0	25.0
0	1.0	10.0	800.0	801	2.0	806	2.0	8	23.0				100.0	100.0	100.0	0.0	2.0	2.0	1.0	100.0	40.0	40.0	45.0
0	1.0	10.0	800.0	801	1.0	805	2.0	9	24.0				100.0	100.0	100.0	0.0	1.0	3.0	0.0	100.0	40.0	40.0	25.0
0	1.0	10.0	800.0	801	2.0	806	2.0	9	24.0				100.0	100.0	100.0	0.0	3.0	1.0	1.0	100.0	40.0	40.0	45.0
0	1.0	10.0	800.0	801	1.0	805	2.0	10	25.0				100.0	100.0	100.0	0.0	4.0	0.0	1.0	100.0	40.0	40.0	45.0
0	1.0	10.0	800.0	801	2.0	806	2.0	10	25.0				100.0	100.0	100.0	0.0	0.0	4.0	0.0	100.0	40.0	40.0	25.0
0	1.0	10.0	800.0	801	1.0	805	2.0	11	26.0				100.0	100.0	100.0	0.0	1.0	3.0	0.0	100.0	40.0	40.0	25.0
0	1.0	10.0	800.0	801	2.0	806	2.0	11	26.0				100.0	100.0	100.0	0.0	3.0	1.0	1.0	100.0	40.0	40.0	45.0
0	1.0	10.0	800.0	801	1.0	805	2.0	12	27.0				100.0	100.0	100.0	0.0	3.0	1.0	1.0	100.0	40.0	40.0	45.0
0	1.0	10.0	800.0	801	2.0	806	2.0	12	27.0				100.0	100.0	100.0	0.0	1.0	3.0	0.0	100.0	40.0	40.0	25.0
0	1.0	10.0	800.0	801	1.0	805	2.0	13	28.0				100.0	100.0	100.0	0.0	1.0	3.0	0.0	100.0	40.0	40.0	25.0
0	1.0	10.0	800.0	801	2.0	806	2.0	13	28.0				100.0	100.0	100.0	0.0	3.0	1.0	1.0	100.0	40.0	40.0	45.0
0	1.0	10.0	800.0	801	1.0	805	2.0	14	29.0				100.0	100.0	100.0	0.0	3.0	1.0	1.0	100.0	40.0	40.0	45.0
0	1.0	10.0	800.0	801	2.0	806	2.0	14	29.0				100.0	100.0	100.0	0.0	1.0	3.0	0.0	100.0	40.0	40.0	25.0
0	1.0	10.0	800.0	801	1.0	805	2.0	15	30.0				100.0	100.0	100.0	0.0	1.0	3.0	0.0	100.0	40.0	40.0	25.0
0	1.0	10.0	800.0	801	2.0	806	2.0	15	30.0				100.0	100.0	100.0	0.0	3.0	1.0	1.0	100.0	40.0	40.0	45.0
1	1.0	11.0	800.0	802	1.0	811	1.0	1	1.0	15.0	15.0	30.0	70.0	50.0	60.0	0.0	3.0	1.0	1.0	70.0	31.0	37.0	60.0
1	1.0	11.0	800.0	802	2.0	812	1.0	1	1.0	15.0	15.0	30.0	50.0	70.0	60.0	0.0	1.0	3.0	0.0	70.0	31.0	37.0	40.0
1	1.0	11.0	800.0	802	1.0	811	1.0	2	2.0	0.0	0.0	0.0	100.0	100.0	100.0	0.0	3.0	1.0	1.0	100.0	40.0	40.0	45.0
1	1.0	11.0	800.0	802	2.0	812	1.0	2	2.0	0.0	0.0	0.0	100.0	100.0	100.0	0.0	1.0	3.0	0.0	100.0	40.0	40.0	25.0
1	1.0	11.0	800.0	802	1.0	811	1.0	3	3.0	25.0	50.0	75.0	100.0	90.0	95.0	0.0	3.0	1.0	1.0	100.0	40.0	-35.0	70.0
1	1.0	11.0	800.0	802	2.0	812	1.0	3	3.0	50.0	25.0	75.0	90.0	100.0	95.0	0.0	1.0	3.0	0.0	100.0	40.0	-35.0	75.0
1	1.0	11.0	800.0	802	1.0	811	1.0	4	4.0	0.0	0.0	0.0	100.0	100.0	100.0	0.0	4.0	0.0	1.0	100.0	40.0	40.0	45.0
1	1.0	11.0	800.0	802	2.0	812	1.0	4	4.0	0.0	0.0	0.0	100.0	100.0	100.0	0.0	0.0	4.0	0.0	100.0	40.0	40.0	25.0
1	1.0	11.0	800.0	802	1.0	811	1.0	5	5.0	0.0	0.0	0.0	100.0	100.0	100.0	0.0	3.0	1.0	1.0	100.0	40.0	40.0	45.0
1	1.0	11.0	800.0	802	2.0	812	1.0	5	5.0	0.0	0.0	0.0	100.0	100.0	100.0	1.0	1.0	3.0	0.0	100.0	40.0	40.0	24.0
1	1.0	11.0	800.0	802	1.0	811	1.0	6	6.0	0.0	0.0	0.0	100.0	0.0	50.0	0.0	3.0	1.0	1.0	100.0	40.0	40.0	45.0
1	1.0	11.0	800.0	802	2.0	812	1.0	6	6.0	0.0	0.0	0.0	0.0	100.0	50.0	0.0	1.0	3.0	0.0	100.0	40.0	40.0	25.0
1	1.0	11.0	800.0	802	1.0	811	1.0	7	7.0	0.0	0.0	0.0	100.0	100.0	100.0	0.0	3.0	1.0	1.0	100.0	40.0	40.0	45.0
1	1.0	11.0	800.0	802	2.0	812	1.0	7	7.0	0.0	0.0	0.0	100.0	100.0	100.0	4.0	1.0	3.0	0.0	100.0	40.0	40.0	21.0
1	1.0	11.0	800.0	802	1.0	811	1.0	8	8.0	0.0	0.0	0.0	100.0	100.0	100.0	0.0	2.0	2.0	1.0	100.0	40.0	40.0	45.0
1	1.0	11.0	800.0	802	2.0	812	1.0	8	8.0	0.0	0.0	0.0	100.0	100.0	100.0	0.0	2.0	2.0	0.0	100.0	40.0	40.0	25.0
1	1.0	11.0	800.0	802	1.0	811	1.0	9	9.0	0.0	0.0	0.0	100.0	100.0	100.0	0.0	2.0	2.0	1.0	100.0	40.0	40.0	45.0
1	1.0	11.0	800.0	802	2.0	812	1.0	9	9.0	0.0	0.0	0.0	100.0	100.0	100.0	0.0	2.0	2.0	0.0	100.0	40.0	40.0	25.0
1	1.0	11.0	800.0	802	1.0	811	1.0	10	10.0	0.0	0.0	0.0	100.0	100.0	100.0	0.0	3.0	1.0	1.0	100.0	40.0	40.0	45.0
1	1.0	11.0	800.0	802	2.0	812	1.0	10	10.0	0.0	0.0	0.0	100.0	100.0	100.0	0.0	1.0	3.0	0.0	100.0	40.0	40.0	25.0
1	1.0	11.0	800.0	802	1.0	811	1.0	11	11.0	0.0	0.0	0.0	100.0	100.0	100.0	0.0	3.0	1.0	1.0	100.0	40.0	40.0	45.0
1	1.0	11.0	800.0	802	2.0	812	1.0	11	11.0	0.0	0.0	0.0	100.0	100.0	100.0	0.0	1.0	3.0	0.0	100.0	40.0	40.0	25.0
1	1.0	11.0	800.0	802	1.0	811	1.0	12	12.0	0.0	0.0	0.0	100.0	100.0	100.0	0.0	2.0	2.0	0.0	100.0	40.0	40.0	25.0
1	1.0	11.0	800.0	802	2.0	812	1.0	12	12.0	0.0	0.0	0.0	100.0	100.0	100.0	0.0	2.0	2.0	1.0	100.0	40.0	40.0	45.0
1	1.0	11.0	800.0	802	1.0	811	1.0	13	13.0	0.0	0.0	0.0	100.0	100.0	100.0	0.0	1.0	3.0	0.0	100.0	40.0	40.0	25.0
1	1.0	11.0	800.0	802	2.0	812	1.0	13	13.0	0.0	0.0	0.0	100.0	100.0	100.0	0.0	3.0	1.0	1.0	100.0	40.0	40.0	45.0
1	1.0	11.0	800.0	802	1.0	811	1.0	14	14.0	0.0	0.0	0.0	100.0	100.0	100.0	0.0	2.0	2.0	1.0	100.0	40.0	40.0	45.0
1	1.0	11.0	800.0	802	2.0	812	1.0	14	14.0	0.0	0.0	0.0	100.0	100.0	100.0	0.0	2.0	2.0	0.0	100.0	40.0	40.0	25.0
1	1.0	11.0	800.0	802	1.0	811	1.0	15	15.0	0.0	0.0	0.0	100.0	100.0	100.0	0.0	2.0	2.0	0.0	100.0	40.0	40.0	25.0
1	1.0	11.0	800.0	802	2.0	812	1.0	15	15.0	0.0	0.0	0.0	100.0	100.0	100.0	0.0	2.0	2.0	1.0	100.0	40.0	40.0	45.0
0	1.0	10.0	800.0	802	1.0	811	2.0	1	16.0				100.0	100.0	100.0	0.0	3.0	1.0	1.0	100.0	40.0	40.0	45.0
0	1.0	10.0	800.0	802	2.0	812	2.0	1	16.0				100.0	100.0	100.0	0.0	1.0	3.0	0.0	100.0	40.0	40.0	25.0
0	1.0	10.0	800.0	802	1.0	811	2.0	2	17.0				100.0	100.0	100.0	0.0	3.0	1.0	1.0	100.0	40.0	40.0	45.0
0	1.0	10.0	800.0	802	2.0	812	2.0	2	17.0				100.0	100.0	100.0	0.0	1.0	3.0	0.0	100.0	40.0	40.0	25.0
0	1.0	10.0	800.0	802	1.0	811	2.0	3	18.0				100.0	100.0	100.0	0.0	2.0	2.0	0.0	100.0	40.0	40.0	25.0
0	1.0	10.0	800.0	802	2.0	812	2.0	3	18.0				100.0	100.0	100.0	0.0	2.0	2.0	1.0	100.0	40.0	40.0	45.0
0	1.0	10.0	800.0	802	1.0	811	2.0	4	19.0				100.0	100.0	100.0	0.0	3.0	1.0	1.0	100.0	40.0	40.0	45.0
0	1.0	10.0	800.0	802	2.0	812	2.0	4	19.0				100.0	100.0	100.0	0.0	1.0	3.0	0.0	100.0	40.0	40.0	25.0
0	1.0	10.0	800.0	802	1.0	811	2.0	5	20.0				100.0	100.0	100.0	0.0	2.0	2.0	0.0	100.0	40.0	40.0	25.0
0	1.0	10.0	800.0	802	2.0	812	2.0	5	20.0				100.0	100.0	100.0	0.0	2.0	2.0	1.0	100.0	40.0	40.0	45.0
0	1.0	10.0	800.0	802	1.0	811	2.0	6	21.0				100.0	100.0	100.0	0.0	2.0	2.0	0.0	100.0	40.0	40.0	25.0
0	1.0	10.0	800.0	802	2.0	812	2.0	6	21.0				100.0	100.0	100.0	0.0	2.0	2.0	1.0	100.0	40.0	40.0	45.0
0	1.0	10.0	800.0	802	1.0	811	2.0	7	22.0				100.0	100.0	100.0	0.0	2.0	2.0	0.0	100.0	40.0	40.0	25.0
0	1.0	10.0	800.0	802	2.0	812	2.0	7	22.0				100.0	100.0	100.0	0.0	2.0	2.0	1.0	100.0	40.0	40.0	45.0
0	1.0	10.0	800.0	802	1.0	811	2.0	8	23.0				100.0	100.0	100.0	0.0	2.0	2.0	1.0	100.0	40.0	40.0	45.0
0	1.0	10.0	800.0	802	2.0	812	2.0	8	23.0				100.0	100.0	100.0	0.0	2.0	2.0	0.0	100.0	40.0	40.0	25.0
0	1.0	10.0	800.0	802	1.0	811	2.0	9	24.0				100.0	100.0	100.0	0.0	1.0	3.0	0.0	100.0	40.0	40.0	25.0
0	1.0	10.0	800.0	802	2.0	812	2.0	9	24.0				100.0	100.0	100.0	0.0	3.0	1.0	1.0	100.0	40.0	40.0	45.0
0	1.0	10.0	800.0	802	1.0	811	2.0	10	25.0				100.0	100.0	100.0	0.0	2.0	2.0	0.0	100.0	40.0	40.0	25.0
0	1.0	10.0	800.0	802	2.0	812	2.0	10	25.0				100.0	100.0	100.0	0.0	2.0	2.0	1.0	100.0	40.0	40.0	45.0
0	1.0	10.0	800.0	802	1.0	811	2.0	11	26.0				100.0	100.0	100.0	0.0	2.0	2.0	0.0	100.0	40.0	40.0	25.0
0	1.0	10.0	800.0	802	2.0	812	2.0	11	26.0				100.0	100.0	100.0	0.0	2.0	2.0	1.0	100.0	40.0	40.0	45.0
0	1.0	10.0	800.0	802	1.0	811	2.0	12	27.0				100.0	100.0	100.0	0.0	2.0	2.0	1.0	100.0	40.0	40.0	45.0
0	1.0	10.0	800.0	802	2.0	812	2.0	12	27.0				100.0	100.0	100.0	0.0	2.0	2.0	0.0	100.0	40.0	40.0	25.0
0	1.0	10.0	800.0	802	1.0	811	2.0	13	28.0				100.0	100.0	100.0	0.0	2.0	2.0	0.0	100.0	40.0	40.0	25.0
0	1.0	10.0	800.0	802	2.0	812	2.0	13	28.0				100.0	100.0	100.0	0.0	2.0	2.0	1.0	100.0	40.0	40.0	45.0
0	1.0	10.0	800.0	802	1.0	811	2.0	14	29.0				100.0	100.0	100.0	0.0	2.0	2.0	1.0	100.0	40.0	40.0	45.0
0	1.0	10.0	800.0	802	2.0	812	2.0	14	29.0				100.0	100.0	100.0	0.0	2.0	2.0	0.0	100.0	40.0	40.0	25.0
0	1.0	10.0	800.0	802	1.0	811	2.0	15	30.0				100.0	100.0	100.0	0.0	2.0	2.0	1.0	100.0	40.0	40.0	45.0
0	1.0	10.0	800.0	802	2.0	812	2.0	15	30.0				100.0	100.0	100.0	0.0	2.0	2.0	0.0	100.0	40.0	40.0	25.0
0	0.0	0.0	900.0	901	1.0	908	1.0	1	1.0				30.0	100.0	65.0	0.0	1.0	3.0	0.0	100.0	40.0	40.0	25.0
0	0.0	0.0	900.0	901	2.0	910	1.0	1	1.0				100.0	30.0	65.0	0.0	3.0	1.0	1.0	100.0	40.0	40.0	45.0
0	0.0	0.0	900.0	901	1.0	906	1.0	2	2.0				100.0	55.0	77.5	0.0	3.0	1.0	1.0	100.0	40.0	40.0	45.0
0	0.0	0.0	900.0	901	2.0	907	1.0	2	2.0				55.0	100.0	77.5	0.0	1.0	3.0	0.0	100.0	40.0	40.0	25.0
0	0.0	0.0	900.0	901	1.0	905	1.0	3	3.0				70.0	75.0	72.5	1.0	1.0	3.0	0.0	75.0	32.5	62.5	24.0
0	0.0	0.0	900.0	901	2.0	910	1.0	3	3.0				75.0	70.0	72.5	2.0	3.0	1.0	1.0	75.0	32.5	62.5	43.0
0	0.0	0.0	900.0	901	1.0	910	1.0	4	4.0				100.0	85.0	92.5	0.0	3.0	1.0	1.0	100.0	40.0	40.0	45.0
0	0.0	0.0	900.0	901	2.0	907	1.0	4	4.0				85.0	100.0	92.5	0.0	1.0	3.0	0.0	100.0	40.0	40.0	25.0
0	0.0	0.0	900.0	901	1.0	907	1.0	5	5.0				45.0	50.0	47.5	0.0	1.0	3.0	0.0	50.0	25.0	85.0	25.0
0	0.0	0.0	900.0	901	2.0	909	1.0	5	5.0				50.0	45.0	47.5	0.0	3.0	1.0	1.0	50.0	25.0	85.0	45.0
0	0.0	0.0	900.0	901	1.0	909	1.0	6	6.0				100.0	100.0	100.0	0.0	3.0	1.0	1.0	100.0	40.0	40.0	45.0
0	0.0	0.0	900.0	901	2.0	907	1.0	6	6.0				100.0	100.0	100.0	0.0	1.0	3.0	0.0	100.0	40.0	40.0	25.0
0	0.0	0.0	900.0	901	1.0	910	1.0	7	7.0				100.0	100.0	100.0	0.0	3.0	1.0	1.0	100.0	40.0	40.0	45.0
0	0.0	0.0	900.0	901	2.0	908	1.0	7	7.0				100.0	100.0	100.0	0.0	1.0	3.0	0.0	100.0	40.0	40.0	25.0
0	0.0	0.0	900.0	901	1.0	908	1.0	8	8.0				100.0	100.0	100.0	0.0	1.0	3.0	0.0	100.0	40.0	40.0	25.0
0	0.0	0.0	900.0	901	2.0	906	1.0	8	8.0				100.0	100.0	100.0	0.0	3.0	1.0	1.0	100.0	40.0	40.0	45.0
0	0.0	0.0	900.0	901	1.0	905	1.0	9	9.0				100.0	95.0	97.5	0.0	3.0	1.0	1.0	100.0	40.0	40.0	45.0
0	0.0	0.0	900.0	901	2.0	907	1.0	9	9.0				95.0	100.0	97.5	0.0	1.0	3.0	0.0	100.0	40.0	40.0	25.0
0	0.0	0.0	900.0	901	1.0	908	1.0	10	10.0				100.0	100.0	100.0	0.0	2.0	2.0	0.0	100.0	40.0	40.0	25.0
0	0.0	0.0	900.0	901	2.0	905	1.0	10	10.0				100.0	100.0	100.0	0.0	2.0	2.0	1.0	100.0	40.0	40.0	45.0
0	0.0	0.0	900.0	901	1.0	906	1.0	11	11.0				100.0	100.0	100.0	0.0	4.0	0.0	1.0	100.0	40.0	40.0	45.0
0	0.0	0.0	900.0	901	2.0	907	1.0	11	11.0				100.0	100.0	100.0	0.0	0.0	4.0	0.0	100.0	40.0	40.0	25.0
0	0.0	0.0	900.0	901	1.0	905	1.0	12	12.0				100.0	100.0	100.0	0.0	2.0	2.0	1.0	100.0	40.0	40.0	45.0
0	0.0	0.0	900.0	901	2.0	908	1.0	12	12.0				100.0	100.0	100.0	0.0	2.0	2.0	0.0	100.0	40.0	40.0	25.0
0	0.0	0.0	900.0	901	1.0	907	1.0	13	13.0				100.0	100.0	100.0	0.0	2.0	2.0	0.0	100.0	40.0	40.0	25.0
0	0.0	0.0	900.0	901	2.0	905	1.0	13	13.0				100.0	100.0	100.0	0.0	2.0	2.0	1.0	100.0	40.0	40.0	45.0
0	0.0	0.0	900.0	901	1.0	908	1.0	14	14.0				100.0	100.0	100.0	0.0	3.0	1.0	1.0	100.0	40.0	40.0	45.0
0	0.0	0.0	900.0	901	2.0	907	1.0	14	14.0				100.0	100.0	100.0	0.0	1.0	3.0	0.0	100.0	40.0	40.0	25.0
0	0.0	0.0	900.0	901	1.0	906	1.0	15	15.0				100.0	100.0	100.0	0.0	2.0	2.0	1.0	100.0	40.0	40.0	45.0
0	0.0	0.0	900.0	901	2.0	905	1.0	15	15.0				100.0	100.0	100.0	0.0	2.0	2.0	0.0	100.0	40.0	40.0	25.0
1	0.0	1.0	900.0	901	1.0	909	2.0	1	16.0	10.0	20.0	30.0	100.0	100.0	100.0	0.0	3.0	1.0	1.0	100.0	40.0	10.0	55.0
1	0.0	1.0	900.0	901	2.0	905	2.0	1	16.0	20.0	10.0	30.0	100.0	100.0	100.0	0.0	1.0	3.0	0.0	100.0	40.0	10.0	45.0
1	0.0	1.0	900.0	901	1.0	910	2.0	2	17.0	0.0	0.0	0.0	100.0	100.0	100.0	2.0	4.0	0.0	1.0	100.0	40.0	40.0	43.0
1	0.0	1.0	900.0	901	2.0	909	2.0	2	17.0	0.0	0.0	0.0	100.0	100.0	100.0	0.0	0.0	4.0	0.0	100.0	40.0	40.0	25.0
1	0.0	1.0	900.0	901	1.0	909	2.0	3	18.0	0.0	0.0	0.0	100.0	100.0	100.0	0.0	3.0	1.0	1.0	100.0	40.0	40.0	45.0
1	0.0	1.0	900.0	901	2.0	907	2.0	3	18.0	0.0	0.0	0.0	100.0	100.0	100.0	0.0	1.0	3.0	0.0	100.0	40.0	40.0	25.0
1	0.0	1.0	900.0	901	1.0	905	2.0	4	19.0	0.0	0.0	0.0	0.0	100.0	50.0	0.0	1.0	3.0	0.0	100.0	40.0	40.0	25.0
1	0.0	1.0	900.0	901	2.0	910	2.0	4	19.0	0.0	0.0	0.0	100.0	0.0	50.0	0.0	3.0	1.0	1.0	100.0	40.0	40.0	45.0
1	0.0	1.0	900.0	901	1.0	907	2.0	5	20.0	0.0	0.0	0.0	15.0	100.0	57.5	0.0	1.0	3.0	0.0	100.0	40.0	40.0	25.0
1	0.0	1.0	900.0	901	2.0	906	2.0	5	20.0	0.0	0.0	0.0	100.0	15.0	57.5	0.0	3.0	1.0	1.0	100.0	40.0	40.0	45.0
1	0.0	1.0	900.0	901	1.0	910	2.0	6	21.0	0.0	0.0	0.0	100.0	10.0	55.0	0.0	3.0	1.0	1.0	100.0	40.0	40.0	45.0
1	0.0	1.0	900.0	901	2.0	907	2.0	6	21.0	0.0	0.0	0.0	10.0	100.0	55.0	0.0	1.0	3.0	0.0	100.0	40.0	40.0	25.0
1	0.0	1.0	900.0	901	1.0	906	2.0	7	22.0	0.0	0.0	0.0	100.0	100.0	100.0	0.0	4.0	0.0	1.0	100.0	40.0	40.0	45.0
1	0.0	1.0	900.0	901	2.0	910	2.0	7	22.0	0.0	0.0	0.0	100.0	100.0	100.0	0.0	0.0	4.0	0.0	100.0	40.0	40.0	25.0
1	0.0	1.0	900.0	901	1.0	909	2.0	8	23.0	0.0	0.0	0.0	100.0	25.0	62.5	0.0	3.0	1.0	1.0	100.0	40.0	40.0	45.0
1	0.0	1.0	900.0	901	2.0	907	2.0	8	23.0	0.0	0.0	0.0	25.0	100.0	62.5	0.0	1.0	3.0	0.0	100.0	40.0	40.0	25.0
1	0.0	1.0	900.0	901	1.0	908	2.0	9	24.0	5.0	5.0	10.0	100.0	100.0	100.0	0.0	2.0	2.0	0.0	100.0	40.0	30.0	30.0
1	0.0	1.0	900.0	901	2.0	906	2.0	9	24.0	5.0	5.0	10.0	100.0	100.0	100.0	0.0	2.0	2.0	1.0	100.0	40.0	30.0	50.0
1	0.0	1.0	900.0	901	1.0	906	2.0	10	25.0	0.0	0.0	0.0	100.0	100.0	100.0	0.0	4.0	0.0	1.0	100.0	40.0	40.0	45.0
1	0.0	1.0	900.0	901	2.0	905	2.0	10	25.0	0.0	0.0	0.0	100.0	100.0	100.0	0.0	0.0	4.0	0.0	100.0	40.0	40.0	25.0
1	0.0	1.0	900.0	901	1.0	908	2.0	11	26.0	0.0	0.0	0.0	100.0	100.0	100.0	0.0	3.0	1.0	1.0	100.0	40.0	40.0	45.0
1	0.0	1.0	900.0	901	2.0	909	2.0	11	26.0	0.0	0.0	0.0	100.0	100.0	100.0	0.0	1.0	3.0	0.0	100.0	40.0	40.0	25.0
1	0.0	1.0	900.0	901	1.0	910	2.0	12	27.0	0.0	0.0	0.0	100.0	0.0	50.0	0.0	3.0	1.0	1.0	100.0	40.0	40.0	45.0
1	0.0	1.0	900.0	901	2.0	907	2.0	12	27.0	0.0	0.0	0.0	0.0	100.0	50.0	0.0	1.0	3.0	0.0	100.0	40.0	40.0	25.0
1	0.0	1.0	900.0	901	1.0	909	2.0	13	28.0	0.0	0.0	0.0	100.0	100.0	100.0	0.0	4.0	0.0	1.0	100.0	40.0	40.0	45.0
1	0.0	1.0	900.0	901	2.0	910	2.0	13	28.0	0.0	0.0	0.0	100.0	100.0	100.0	0.0	0.0	4.0	0.0	100.0	40.0	40.0	25.0
1	0.0	1.0	900.0	901	1.0	908	2.0	14	29.0	10.0	0.0	10.0	100.0	100.0	100.0	0.0	0.0	4.0	0.0	100.0	40.0	30.0	35.0
1	0.0	1.0	900.0	901	2.0	909	2.0	14	29.0	0.0	10.0	10.0	100.0	100.0	100.0	0.0	4.0	0.0	1.0	100.0	40.0	30.0	45.0
1	0.0	1.0	900.0	901	1.0	910	2.0	15	30.0	0.0	0.0	0.0	100.0	100.0	100.0	0.0	3.0	1.0	1.0	100.0	40.0	40.0	45.0
1	0.0	1.0	900.0	901	2.0	906	2.0	15	30.0	0.0	0.0	0.0	100.0	100.0	100.0	0.0	1.0	3.0	0.0	100.0	40.0	40.0	25.0
1	1.0	11.0	1000.0	1001	1.0	1005	1.0	1	1.0	15.0	15.0	30.0	25.0	25.0	25.0	0.0	1.0	3.0	0.0	25.0	17.5	77.5	40.0
1	1.0	11.0	1000.0	1001	2.0	1006	1.0	1	1.0	15.0	15.0	30.0	25.0	25.0	25.0	0.0	3.0	1.0	1.0	25.0	17.5	77.5	60.0
1	1.0	11.0	1000.0	1001	1.0	1005	1.0	2	2.0	10.0	10.0	20.0	100.0	100.0	100.0	1.0	3.0	1.0	1.0	100.0	40.0	20.0	54.0
1	1.0	11.0	1000.0	1001	2.0	1006	1.0	2	2.0	10.0	10.0	20.0	100.0	100.0	100.0	0.0	1.0	3.0	0.0	100.0	40.0	20.0	35.0
1	1.0	11.0	1000.0	1001	1.0	1005	1.0	3	3.0	0.0	0.0	0.0	100.0	25.0	62.5	0.0	3.0	1.0	1.0	100.0	40.0	40.0	45.0
1	1.0	11.0	1000.0	1001	2.0	1006	1.0	3	3.0	0.0	0.0	0.0	25.0	100.0	62.5	0.0	1.0	3.0	0.0	100.0	40.0	40.0	25.0
1	1.0	11.0	1000.0	1001	1.0	1005	1.0	4	4.0	5.0	20.0	25.0	100.0	25.0	62.5	0.0	3.0	1.0	1.0	100.0	40.0	15.0	50.0
1	1.0	11.0	1000.0	1001	2.0	1006	1.0	4	4.0	20.0	5.0	25.0	25.0	100.0	62.5	0.0	1.0	3.0	0.0	100.0	40.0	15.0	45.0
1	1.0	11.0	1000.0	1001	1.0	1005	1.0	5	5.0	10.0	15.0	25.0	100.0	100.0	100.0	0.0	1.0	3.0	0.0	100.0	40.0	15.0	35.0
1	1.0	11.0	1000.0	1001	2.0	1006	1.0	5	5.0	15.0	10.0	25.0	100.0	100.0	100.0	0.0	3.0	1.0	1.0	100.0	40.0	15.0	60.0
1	1.0	11.0	1000.0	1001	1.0	1005	1.0	6	6.0	20.0	20.0	40.0	75.0	80.0	77.5	0.0	2.0	2.0	0.0	80.0	34.0	18.0	45.0
1	1.0	11.0	1000.0	1001	2.0	1006	1.0	6	6.0	20.0	20.0	40.0	80.0	75.0	77.5	0.0	2.0	2.0	1.0	80.0	34.0	18.0	65.0
1	1.0	11.0	1000.0	1001	1.0	1005	1.0	7	7.0	20.0	10.0	30.0	25.0	30.0	27.5	0.0	1.0	3.0	0.0	30.0	19.0	73.0	45.0
1	1.0	11.0	1000.0	1001	2.0	1006	1.0	7	7.0	10.0	20.0	30.0	30.0	25.0	27.5	0.0	3.0	1.0	1.0	30.0	19.0	73.0	55.0
1	1.0	11.0	1000.0	1001	1.0	1005	1.0	8	8.0	20.0	15.0	35.0	100.0	100.0	100.0	0.0	4.0	0.0	1.0	100.0	40.0	5.0	65.0
1	1.0	11.0	1000.0	1001	2.0	1006	1.0	8	8.0	15.0	20.0	35.0	100.0	100.0	100.0	0.0	0.0	4.0	0.0	100.0	40.0	5.0	40.0
1	1.0	11.0	1000.0	1001	1.0	1005	1.0	9	9.0	0.0	0.0	0.0	100.0	100.0	100.0	0.0	1.0	3.0	0.0	100.0	40.0	40.0	25.0
1	1.0	11.0	1000.0	1001	2.0	1006	1.0	9	9.0	0.0	0.0	0.0	100.0	100.0	100.0	0.0	3.0	1.0	1.0	100.0	40.0	40.0	45.0
1	1.0	11.0	1000.0	1001	1.0	1005	1.0	10	10.0	20.0	15.0	35.0	50.0	55.0	52.5	0.0	2.0	2.0	1.0	50.0	25.0	50.0	65.0
1	1.0	11.0	1000.0	1001	2.0	1006	1.0	10	10.0	15.0	20.0	35.0	55.0	50.0	52.5	0.0	2.0	2.0	0.0	50.0	25.0	50.0	40.0
1	1.0	11.0	1000.0	1001	1.0	1005	1.0	11	11.0	20.0	20.0	40.0	25.0	30.0	27.5	0.0	1.0	3.0	0.0	30.0	19.0	63.0	45.0
1	1.0	11.0	1000.0	1001	2.0	1006	1.0	11	11.0	20.0	20.0	40.0	30.0	25.0	27.5	0.0	3.0	1.0	1.0	30.0	19.0	63.0	65.0
1	1.0	11.0	1000.0	1001	1.0	1005	1.0	12	12.0	20.0	16.0	36.0	20.0	30.0	25.0	0.0	1.0	3.0	0.0	30.0	19.0	67.0	45.0
1	1.0	11.0	1000.0	1001	2.0	1006	1.0	12	12.0	16.0	20.0	36.0	30.0	20.0	25.0	0.0	3.0	1.0	1.0	30.0	19.0	67.0	61.0
1	1.0	11.0	1000.0	1001	1.0	1005	1.0	13	13.0	18.0	18.0	36.0	100.0	100.0	100.0	0.0	4.0	0.0	1.0	100.0	40.0	4.0	63.0
1	1.0	11.0	1000.0	1001	2.0	1006	1.0	13	13.0	18.0	18.0	36.0	100.0	100.0	100.0	0.0	0.0	4.0	0.0	100.0	40.0	4.0	43.0
1	1.0	11.0	1000.0	1001	1.0	1005	1.0	14	14.0	15.0	20.0	35.0	20.0	25.0	22.5	1.0	1.0	3.0	0.0	25.0	17.5	72.5	39.0
1	1.0	11.0	1000.0	1001	2.0	1006	1.0	14	14.0	20.0	15.0	35.0	25.0	20.0	22.5	1.0	3.0	1.0	1.0	25.0	17.5	72.5	64.0
1	1.0	11.0	1000.0	1001	1.0	1005	1.0	15	15.0	20.0	15.0	35.0	100.0	100.0	100.0	1.0	3.0	1.0	1.0	100.0	40.0	5.0	64.0
1	1.0	11.0	1000.0	1001	2.0	1006	1.0	15	15.0	15.0	20.0	35.0	100.0	100.0	100.0	2.0	1.0	3.0	0.0	100.0	40.0	5.0	38.0
0	1.0	10.0	1000.0	1001	1.0	1005	2.0	1	16.0				100.0	100.0	100.0	0.0	3.0	1.0	1.0	100.0	40.0	40.0	45.0
0	1.0	10.0	1000.0	1001	2.0	1006	2.0	1	16.0				100.0	100.0	100.0	0.0	1.0	3.0	0.0	100.0	40.0	40.0	25.0
0	1.0	10.0	1000.0	1001	1.0	1005	2.0	2	17.0				100.0	100.0	100.0	0.0	2.0	2.0	0.0	100.0	40.0	40.0	25.0
0	1.0	10.0	1000.0	1001	2.0	1006	2.0	2	17.0				100.0	100.0	100.0	0.0	2.0	2.0	1.0	100.0	40.0	40.0	45.0
0	1.0	10.0	1000.0	1001	1.0	1005	2.0	3	18.0				100.0	100.0	100.0	0.0	3.0	1.0	1.0	100.0	40.0	40.0	45.0
0	1.0	10.0	1000.0	1001	2.0	1006	2.0	3	18.0				100.0	100.0	100.0	0.0	1.0	3.0	0.0	100.0	40.0	40.0	25.0
0	1.0	10.0	1000.0	1001	1.0	1005	2.0	4	19.0				100.0	100.0	100.0	0.0	2.0	2.0	0.0	100.0	40.0	40.0	25.0
0	1.0	10.0	1000.0	1001	2.0	1006	2.0	4	19.0				100.0	100.0	100.0	0.0	2.0	2.0	1.0	100.0	40.0	40.0	45.0
0	1.0	10.0	1000.0	1001	1.0	1005	2.0	5	20.0				100.0	100.0	100.0	0.0	3.0	1.0	1.0	100.0	40.0	40.0	45.0
0	1.0	10.0	1000.0	1001	2.0	1006	2.0	5	20.0				100.0	100.0	100.0	0.0	1.0	3.0	0.0	100.0	40.0	40.0	25.0
0	1.0	10.0	1000.0	1001	1.0	1005	2.0	6	21.0				100.0	100.0	100.0	0.0	1.0	3.0	0.0	100.0	40.0	40.0	25.0
0	1.0	10.0	1000.0	1001	2.0	1006	2.0	6	21.0				100.0	100.0	100.0	0.0	3.0	1.0	1.0	100.0	40.0	40.0	45.0
0	1.0	10.0	1000.0	1001	1.0	1005	2.0	7	22.0				75.0	100.0	87.5	0.0	1.0	3.0	0.0	100.0	40.0	40.0	25.0
0	1.0	10.0	1000.0	1001	2.0	1006	2.0	7	22.0				100.0	75.0	87.5	0.0	3.0	1.0	1.0	100.0	40.0	40.0	45.0
0	1.0	10.0	1000.0	1001	1.0	1005	2.0	8	23.0				85.0	100.0	92.5	0.0	1.0	3.0	0.0	100.0	40.0	40.0	25.0
0	1.0	10.0	1000.0	1001	2.0	1006	2.0	8	23.0				100.0	85.0	92.5	0.0	3.0	1.0	1.0	100.0	40.0	40.0	45.0
0	1.0	10.0	1000.0	1001	1.0	1005	2.0	9	24.0				100.0	100.0	100.0	0.0	3.0	1.0	1.0	100.0	40.0	40.0	45.0
0	1.0	10.0	1000.0	1001	2.0	1006	2.0	9	24.0				100.0	100.0	100.0	0.0	1.0	3.0	0.0	100.0	40.0	40.0	25.0
0	1.0	10.0	1000.0	1001	1.0	1005	2.0	10	25.0				100.0	100.0	100.0	0.0	3.0	1.0	1.0	100.0	40.0	40.0	45.0
0	1.0	10.0	1000.0	1001	2.0	1006	2.0	10	25.0				100.0	100.0	100.0	0.0	1.0	3.0	0.0	100.0	40.0	40.0	25.0
0	1.0	10.0	1000.0	1001	1.0	1005	2.0	11	26.0				100.0	100.0	100.0	0.0	2.0	2.0	1.0	100.0	40.0	40.0	45.0
0	1.0	10.0	1000.0	1001	2.0	1006	2.0	11	26.0				100.0	100.0	100.0	0.0	2.0	2.0	0.0	100.0	40.0	40.0	25.0
0	1.0	10.0	1000.0	1001	1.0	1005	2.0	12	27.0				85.0	100.0	92.5	0.0	1.0	3.0	0.0	100.0	40.0	40.0	25.0
0	1.0	10.0	1000.0	1001	2.0	1006	2.0	12	27.0				100.0	85.0	92.5	0.0	3.0	1.0	1.0	100.0	40.0	40.0	45.0
0	1.0	10.0	1000.0	1001	1.0	1005	2.0	13	28.0				100.0	100.0	100.0	0.0	4.0	0.0	1.0	100.0	40.0	40.0	45.0
0	1.0	10.0	1000.0	1001	2.0	1006	2.0	13	28.0				100.0	100.0	100.0	0.0	0.0	4.0	0.0	100.0	40.0	40.0	25.0
0	1.0	10.0	1000.0	1001	1.0	1005	2.0	14	29.0				85.0	100.0	92.5	0.0	1.0	3.0	0.0	100.0	40.0	40.0	25.0
0	1.0	10.0	1000.0	1001	2.0	1006	2.0	14	29.0				100.0	85.0	92.5	0.0	3.0	1.0	1.0	100.0	40.0	40.0	45.0
0	1.0	10.0	1000.0	1001	1.0	1005	2.0	15	30.0				100.0	100.0	100.0	0.0	4.0	0.0	1.0	100.0	40.0	40.0	45.0
0	1.0	10.0	1000.0	1001	2.0	1006	2.0	15	30.0				100.0	100.0	100.0	0.0	0.0	4.0	0.0	100.0	40.0	40.0	25.0
1	1.0	11.0	1000.0	1002	1.0	1011	1.0	1	1.0	10.0	15.0	25.0	10.0	0.0	5.0	0.0	3.0	1.0	1.0	10.0	13.0	96.0	55.0
1	1.0	11.0	1000.0	1002	2.0	1012	1.0	1	1.0	15.0	10.0	25.0	0.0	10.0	5.0	0.0	1.0	3.0	0.0	10.0	13.0	96.0	40.0
1	1.0	11.0	1000.0	1002	1.0	1011	1.0	2	2.0	0.0	20.0	20.0	0.0	10.0	5.0	1.0	1.0	3.0	0.0	10.0	13.0	101.0	24.0
1	1.0	11.0	1000.0	1002	2.0	1012	1.0	2	2.0	20.0	0.0	20.0	10.0	0.0	5.0	0.0	3.0	1.0	1.0	10.0	13.0	101.0	65.0
1	1.0	11.0	1000.0	1002	1.0	1011	1.0	3	3.0	25.0	5.0	30.0	0.0	10.0	5.0	0.0	1.0	3.0	0.0	10.0	13.0	91.0	50.0
1	1.0	11.0	1000.0	1002	2.0	1012	1.0	3	3.0	5.0	25.0	30.0	10.0	0.0	5.0	0.0	3.0	1.0	1.0	10.0	13.0	91.0	50.0
1	1.0	11.0	1000.0	1002	1.0	1011	1.0	4	4.0	0.0	0.0	0.0	100.0	100.0	100.0	0.0	2.0	2.0	1.0	100.0	40.0	40.0	45.0
1	1.0	11.0	1000.0	1002	2.0	1012	1.0	4	4.0	0.0	0.0	0.0	100.0	100.0	100.0	0.0	2.0	2.0	0.0	100.0	40.0	40.0	25.0
1	1.0	11.0	1000.0	1002	1.0	1011	1.0	5	5.0	5.0	15.0	20.0	100.0	100.0	100.0	0.0	3.0	1.0	1.0	100.0	40.0	20.0	50.0
1	1.0	11.0	1000.0	1002	2.0	1012	1.0	5	5.0	15.0	5.0	20.0	100.0	100.0	100.0	1.0	1.0	3.0	0.0	100.0	40.0	20.0	39.0
1	1.0	11.0	1000.0	1002	1.0	1011	1.0	6	6.0	10.0	10.0	20.0	100.0	100.0	100.0	0.0	2.0	2.0	1.0	100.0	40.0	20.0	55.0
1	1.0	11.0	1000.0	1002	2.0	1012	1.0	6	6.0	10.0	10.0	20.0	100.0	100.0	100.0	0.0	2.0	2.0	0.0	100.0	40.0	20.0	35.0
1	1.0	11.0	1000.0	1002	1.0	1011	1.0	7	7.0	0.0	0.0	0.0	100.0	100.0	100.0	0.0	1.0	3.0	0.0	100.0	40.0	40.0	25.0
1	1.0	11.0	1000.0	1002	2.0	1012	1.0	7	7.0	0.0	0.0	0.0	100.0	100.0	100.0	0.0	3.0	1.0	1.0	100.0	40.0	40.0	45.0
1	1.0	11.0	1000.0	1002	1.0	1011	1.0	8	8.0	0.0	50.0	50.0	100.0	90.0	95.0	0.0	3.0	1.0	1.0	100.0	40.0	-10.0	45.0
1	1.0	11.0	1000.0	1002	2.0	1012	1.0	8	8.0	50.0	0.0	50.0	90.0	100.0	95.0	0.0	1.0	3.0	0.0	100.0	40.0	-10.0	75.0
1	1.0	11.0	1000.0	1002	1.0	1011	1.0	9	9.0	5.0	10.0	15.0	100.0	100.0	100.0	0.0	1.0	3.0	0.0	100.0	40.0	25.0	30.0
1	1.0	11.0	1000.0	1002	2.0	1012	1.0	9	9.0	10.0	5.0	15.0	100.0	100.0	100.0	0.0	3.0	1.0	1.0	100.0	40.0	25.0	55.0
1	1.0	11.0	1000.0	1002	1.0	1011	1.0	10	10.0	10.0	10.0	20.0	100.0	100.0	100.0	0.0	3.0	1.0	1.0	100.0	40.0	20.0	55.0
1	1.0	11.0	1000.0	1002	2.0	1012	1.0	10	10.0	10.0	10.0	20.0	100.0	100.0	100.0	0.0	1.0	3.0	0.0	100.0	40.0	20.0	35.0
1	1.0	11.0	1000.0	1002	1.0	1011	1.0	11	11.0	10.0	0.0	10.0	100.0	100.0	100.0	0.0	1.0	3.0	0.0	100.0	40.0	30.0	35.0
1	1.0	11.0	1000.0	1002	2.0	1012	1.0	11	11.0	0.0	10.0	10.0	100.0	100.0	100.0	0.0	3.0	1.0	1.0	100.0	40.0	30.0	45.0
1	1.0	11.0	1000.0	1002	1.0	1011	1.0	12	12.0	0.0	0.0	0.0	100.0	100.0	100.0	0.0	3.0	1.0	1.0	100.0	40.0	40.0	45.0
1	1.0	11.0	1000.0	1002	2.0	1012	1.0	12	12.0	0.0	0.0	0.0	100.0	100.0	100.0	0.0	1.0	3.0	0.0	100.0	40.0	40.0	25.0
1	1.0	11.0	1000.0	1002	1.0	1011	1.0	13	13.0	20.0	0.0	20.0	100.0	100.0	100.0	0.0	0.0	4.0	0.0	100.0	40.0	20.0	45.0
1	1.0	11.0	1000.0	1002	2.0	1012	1.0	13	13.0	0.0	20.0	20.0	100.0	100.0	100.0	0.0	4.0	0.0	1.0	100.0	40.0	20.0	45.0
1	1.0	11.0	1000.0	1002	1.0	1011	1.0	14	14.0	0.0	0.0	0.0	100.0	100.0	100.0	0.0	4.0	0.0	1.0	100.0	40.0	40.0	45.0
1	1.0	11.0	1000.0	1002	2.0	1012	1.0	14	14.0	0.0	0.0	0.0	100.0	100.0	100.0	0.0	0.0	4.0	0.0	100.0	40.0	40.0	25.0
1	1.0	11.0	1000.0	1002	1.0	1011	1.0	15	15.0	0.0	0.0	0.0	100.0	100.0	100.0	0.0	1.0	3.0	0.0	100.0	40.0	40.0	25.0
1	1.0	11.0	1000.0	1002	2.0	1012	1.0	15	15.0	0.0	0.0	0.0	100.0	100.0	100.0	0.0	3.0	1.0	1.0	100.0	40.0	40.0	45.0
0	1.0	10.0	1000.0	1002	1.0	1011	2.0	1	16.0				100.0	100.0	100.0	0.0	3.0	1.0	1.0	100.0	40.0	40.0	45.0
0	1.0	10.0	1000.0	1002	2.0	1012	2.0	1	16.0				100.0	100.0	100.0	0.0	1.0	3.0	0.0	100.0	40.0	40.0	25.0
0	1.0	10.0	1000.0	1002	1.0	1011	2.0	2	17.0				100.0	100.0	100.0	0.0	1.0	3.0	0.0	100.0	40.0	40.0	25.0
0	1.0	10.0	1000.0	1002	2.0	1012	2.0	2	17.0				100.0	100.0	100.0	0.0	3.0	1.0	1.0	100.0	40.0	40.0	45.0
0	1.0	10.0	1000.0	1002	1.0	1011	2.0	3	18.0				100.0	100.0	100.0	0.0	3.0	1.0	1.0	100.0	40.0	40.0	45.0
0	1.0	10.0	1000.0	1002	2.0	1012	2.0	3	18.0				100.0	100.0	100.0	0.0	1.0	3.0	0.0	100.0	40.0	40.0	25.0
0	1.0	10.0	1000.0	1002	1.0	1011	2.0	4	19.0				100.0	100.0	100.0	0.0	1.0	3.0	0.0	100.0	40.0	40.0	25.0
0	1.0	10.0	1000.0	1002	2.0	1012	2.0	4	19.0				100.0	100.0	100.0	0.0	3.0	1.0	1.0	100.0	40.0	40.0	45.0
0	1.0	10.0	1000.0	1002	1.0	1011	2.0	5	20.0				100.0	100.0	100.0	0.0	4.0	0.0	1.0	100.0	40.0	40.0	45.0
0	1.0	10.0	1000.0	1002	2.0	1012	2.0	5	20.0				100.0	100.0	100.0	0.0	0.0	4.0	0.0	100.0	40.0	40.0	25.0
0	1.0	10.0	1000.0	1002	1.0	1011	2.0	6	21.0				100.0	100.0	100.0	0.0	2.0	2.0	1.0	100.0	40.0	40.0	45.0
0	1.0	10.0	1000.0	1002	2.0	1012	2.0	6	21.0				100.0	100.0	100.0	0.0	2.0	2.0	0.0	100.0	40.0	40.0	25.0
0	1.0	10.0	1000.0	1002	1.0	1011	2.0	7	22.0				100.0	100.0	100.0	0.0	3.0	1.0	1.0	100.0	40.0	40.0	45.0
0	1.0	10.0	1000.0	1002	2.0	1012	2.0	7	22.0				100.0	100.0	100.0	0.0	1.0	3.0	0.0	100.0	40.0	40.0	25.0
0	1.0	10.0	1000.0	1002	1.0	1011	2.0	8	23.0				100.0	100.0	100.0	0.0	2.0	2.0	1.0	100.0	40.0	40.0	45.0
0	1.0	10.0	1000.0	1002	2.0	1012	2.0	8	23.0				100.0	100.0	100.0	0.0	2.0	2.0	0.0	100.0	40.0	40.0	25.0
0	1.0	10.0	1000.0	1002	1.0	1011	2.0	9	24.0				100.0	100.0	100.0	0.0	2.0	2.0	0.0	100.0	40.0	40.0	25.0
0	1.0	10.0	1000.0	1002	2.0	1012	2.0	9	24.0				100.0	100.0	100.0	0.0	2.0	2.0	1.0	100.0	40.0	40.0	45.0
0	1.0	10.0	1000.0	1002	1.0	1011	2.0	10	25.0				100.0	100.0	100.0	0.0	2.0	2.0	1.0	100.0	40.0	40.0	45.0
0	1.0	10.0	1000.0	1002	2.0	1012	2.0	10	25.0				100.0	100.0	100.0	0.0	2.0	2.0	0.0	100.0	40.0	40.0	25.0
0	1.0	10.0	1000.0	1002	1.0	1011	2.0	11	26.0				100.0	100.0	100.0	0.0	2.0	2.0	0.0	100.0	40.0	40.0	25.0
0	1.0	10.0	1000.0	1002	2.0	1012	2.0	11	26.0				100.0	100.0	100.0	0.0	2.0	2.0	1.0	100.0	40.0	40.0	45.0
0	1.0	10.0	1000.0	1002	1.0	1011	2.0	12	27.0				100.0	100.0	100.0	0.0	3.0	1.0	1.0	100.0	40.0	40.0	45.0
0	1.0	10.0	1000.0	1002	2.0	1012	2.0	12	27.0				100.0	100.0	100.0	0.0	1.0	3.0	0.0	100.0	40.0	40.0	25.0
0	1.0	10.0	1000.0	1002	1.0	1011	2.0	13	28.0				100.0	100.0	100.0	0.0	2.0	2.0	0.0	100.0	40.0	40.0	25.0
0	1.0	10.0	1000.0	1002	2.0	1012	2.0	13	28.0				100.0	100.0	100.0	0.0	2.0	2.0	1.0	100.0	40.0	40.0	45.0
0	1.0	10.0	1000.0	1002	1.0	1011	2.0	14	29.0				100.0	100.0	100.0	0.0	3.0	1.0	1.0	100.0	40.0	40.0	45.0
0	1.0	10.0	1000.0	1002	2.0	1012	2.0	14	29.0				100.0	100.0	100.0	0.0	1.0	3.0	0.0	100.0	40.0	40.0	25.0
0	1.0	10.0	1000.0	1002	1.0	1011	2.0	15	30.0				100.0	100.0	100.0	0.0	2.0	2.0	1.0	100.0	40.0	40.0	45.0
0	1.0	10.0	1000.0	1002	2.0	1012	2.0	15	30.0				100.0	100.0	100.0	0.0	2.0	2.0	0.0	100.0	40.0	40.0	25.0
0	0.0	0.0	1100.0	1101	1.0	1105	1.0	1	1.0				60.0	30.0	45.0	0.0	4.0	0.0	1.0	60.0	28.0	76.0	45.0
0	0.0	0.0	1100.0	1101	2.0	1110	1.0	1	1.0				30.0	60.0	45.0	0.0	0.0	4.0	0.0	60.0	28.0	76.0	25.0
0	0.0	0.0	1100.0	1101	1.0	1108	1.0	2	2.0				50.0	60.0	55.0	0.0	1.0	3.0	0.0	60.0	28.0	76.0	25.0
0	0.0	0.0	1100.0	1101	2.0	1105	1.0	2	2.0				60.0	50.0	55.0	0.0	3.0	1.0	1.0	60.0	28.0	76.0	45.0
0	0.0	0.0	1100.0	1101	1.0	1107	1.0	3	3.0				70.0	75.0	72.5	1.0	1.0	3.0	0.0	75.0	32.5	62.5	24.0
0	0.0	0.0	1100.0	1101	2.0	1106	1.0	3	3.0				75.0	70.0	72.5	0.0	3.0	1.0	1.0	75.0	32.5	62.5	45.0
0	0.0	0.0	1100.0	1101	1.0	1106	1.0	4	4.0				65.0	75.0	70.0	1.0	1.0	3.0	0.0	75.0	32.5	62.5	24.0
0	0.0	0.0	1100.0	1101	2.0	1107	1.0	4	4.0				75.0	65.0	70.0	0.0	3.0	1.0	1.0	75.0	32.5	62.5	45.0
0	0.0	0.0	1100.0	1101	1.0	1110	1.0	5	5.0				90.0	95.0	92.5	1.0	1.0	3.0	0.0	95.0	38.5	44.5	24.0
0	0.0	0.0	1100.0	1101	2.0	1108	1.0	5	5.0				95.0	90.0	92.5	0.0	3.0	1.0	1.0	95.0	38.5	44.5	45.0
0	0.0	0.0	1100.0	1101	1.0	1106	1.0	6	6.0				100.0	100.0	100.0	0.0	2.0	2.0	0.0	100.0	40.0	40.0	25.0
0	0.0	0.0	1100.0	1101	2.0	1110	1.0	6	6.0				100.0	100.0	100.0	0.0	2.0	2.0	1.0	100.0	40.0	40.0	45.0
0	0.0	0.0	1100.0	1101	1.0	1105	1.0	7	7.0				100.0	100.0	100.0	0.0	2.0	2.0	1.0	100.0	40.0	40.0	45.0
0	0.0	0.0	1100.0	1101	2.0	1106	1.0	7	7.0				100.0	100.0	100.0	0.0	2.0	2.0	0.0	100.0	40.0	40.0	25.0
0	0.0	0.0	1100.0	1101	1.0	1109	1.0	8	8.0				100.0	100.0	100.0	0.0	2.0	2.0	0.0	100.0	40.0	40.0	25.0
0	0.0	0.0	1100.0	1101	2.0	1105	1.0	8	8.0				100.0	100.0	100.0	0.0	2.0	2.0	1.0	100.0	40.0	40.0	45.0
0	0.0	0.0	1100.0	1101	1.0	1108	1.0	9	9.0				100.0	100.0	100.0	0.0	2.0	2.0	1.0	100.0	40.0	40.0	45.0
0	0.0	0.0	1100.0	1101	2.0	1107	1.0	9	9.0				100.0	100.0	100.0	0.0	2.0	2.0	0.0	100.0	40.0	40.0	25.0
0	0.0	0.0	1100.0	1101	1.0	1106	1.0	10	10.0				100.0	100.0	100.0	0.0	2.0	2.0	0.0	100.0	40.0	40.0	25.0
0	0.0	0.0	1100.0	1101	2.0	1108	1.0	10	10.0				100.0	100.0	100.0	0.0	2.0	2.0	1.0	100.0	40.0	40.0	45.0
0	0.0	0.0	1100.0	1101	1.0	1105	1.0	11	11.0				100.0	100.0	100.0	0.0	0.0	4.0	0.0	100.0	40.0	40.0	25.0
0	0.0	0.0	1100.0	1101	2.0	1106	1.0	11	11.0				100.0	100.0	100.0	0.0	4.0	0.0	1.0	100.0	40.0	40.0	45.0
0	0.0	0.0	1100.0	1101	1.0	1106	1.0	12	12.0				100.0	100.0	100.0	0.0	3.0	1.0	1.0	100.0	40.0	40.0	45.0
0	0.0	0.0	1100.0	1101	2.0	1110	1.0	12	12.0				100.0	100.0	100.0	0.0	1.0	3.0	0.0	100.0	40.0	40.0	25.0
0	0.0	0.0	1100.0	1101	1.0	1110	1.0	13	13.0				100.0	100.0	100.0	0.0	4.0	0.0	1.0	100.0	40.0	40.0	45.0
0	0.0	0.0	1100.0	1101	2.0	1109	1.0	13	13.0				100.0	100.0	100.0	0.0	0.0	4.0	0.0	100.0	40.0	40.0	25.0
0	0.0	0.0	1100.0	1101	1.0	1109	1.0	14	14.0				100.0	100.0	100.0	0.0	3.0	1.0	1.0	100.0	40.0	40.0	45.0
0	0.0	0.0	1100.0	1101	2.0	1105	1.0	14	14.0				100.0	100.0	100.0	0.0	1.0	3.0	0.0	100.0	40.0	40.0	25.0
0	0.0	0.0	1100.0	1101	1.0	1107	1.0	15	15.0				100.0	100.0	100.0	0.0	4.0	0.0	1.0	100.0	40.0	40.0	45.0
0	0.0	0.0	1100.0	1101	2.0	1109	1.0	15	15.0				100.0	100.0	100.0	0.0	0.0	4.0	0.0	100.0	40.0	40.0	25.0
1	0.0	1.0	1100.0	1101	1.0	1110	2.0	1	16.0	5.0	10.0	15.0	100.0	100.0	100.0	1.0	4.0	0.0	1.0	100.0	40.0	25.0	49.0
1	0.0	1.0	1100.0	1101	2.0	1109	2.0	1	16.0	10.0	5.0	15.0	100.0	100.0	100.0	0.0	0.0	4.0	0.0	100.0	40.0	25.0	35.0
1	0.0	1.0	1100.0	1101	1.0	1108	2.0	2	17.0	0.0	0.0	0.0	100.0	100.0	100.0	0.0	3.0	1.0	1.0	100.0	40.0	40.0	45.0
1	0.0	1.0	1100.0	1101	2.0	1105	2.0	2	17.0	0.0	0.0	0.0	100.0	100.0	100.0	0.0	1.0	3.0	0.0	100.0	40.0	40.0	25.0
1	0.0	1.0	1100.0	1101	1.0	1105	2.0	3	18.0	0.0	0.0	0.0	10.0	100.0	55.0	0.0	1.0	3.0	0.0	100.0	40.0	40.0	25.0
1	0.0	1.0	1100.0	1101	2.0	1108	2.0	3	18.0	0.0	0.0	0.0	100.0	10.0	55.0	0.0	3.0	1.0	1.0	100.0	40.0	40.0	45.0
1	0.0	1.0	1100.0	1101	1.0	1108	2.0	4	19.0	0.0	0.0	0.0	100.0	100.0	100.0	0.0	1.0	3.0	0.0	100.0	40.0	40.0	25.0
1	0.0	1.0	1100.0	1101	2.0	1107	2.0	4	19.0	0.0	0.0	0.0	100.0	100.0	100.0	0.0	3.0	1.0	1.0	100.0	40.0	40.0	45.0
1	0.0	1.0	1100.0	1101	1.0	1107	2.0	5	20.0	50.0	15.0	65.0	100.0	100.0	100.0	0.0	1.0	3.0	0.0	100.0	40.0	-25.0	75.0
1	0.0	1.0	1100.0	1101	2.0	1106	2.0	5	20.0	15.0	50.0	65.0	100.0	100.0	100.0	0.0	3.0	1.0	1.0	100.0	40.0	-25.0	60.0
1	0.0	1.0	1100.0	1101	1.0	1106	2.0	6	21.0	20.0	20.0	40.0	70.0	75.0	72.5	1.0	1.0	3.0	0.0	75.0	32.5	22.5	44.0
1	0.0	1.0	1100.0	1101	2.0	1107	2.0	6	21.0	20.0	20.0	40.0	75.0	70.0	72.5	0.0	3.0	1.0	1.0	75.0	32.5	22.5	65.0
1	0.0	1.0	1100.0	1101	1.0	1107	2.0	7	22.0	0.0	0.0	0.0	100.0	100.0	100.0	0.0	3.0	1.0	1.0	100.0	40.0	40.0	45.0
1	0.0	1.0	1100.0	1101	2.0	1108	2.0	7	22.0	0.0	0.0	0.0	100.0	100.0	100.0	0.0	1.0	3.0	0.0	100.0	40.0	40.0	25.0
1	0.0	1.0	1100.0	1101	1.0	1106	2.0	8	23.0	17.0	17.0	34.0	100.0	100.0	100.0	1.0	3.0	1.0	1.0	100.0	40.0	6.0	61.0
1	0.0	1.0	1100.0	1101	2.0	1107	2.0	8	23.0	17.0	17.0	34.0	100.0	100.0	100.0	0.0	1.0	3.0	0.0	100.0	40.0	6.0	42.0
1	0.0	1.0	1100.0	1101	1.0	1105	2.0	9	24.0	0.0	0.0	0.0	100.0	100.0	100.0	0.0	2.0	2.0	1.0	100.0	40.0	40.0	45.0
1	0.0	1.0	1100.0	1101	2.0	1106	2.0	9	24.0	0.0	0.0	0.0	100.0	100.0	100.0	0.0	2.0	2.0	0.0	100.0	40.0	40.0	25.0
1	0.0	1.0	1100.0	1101	1.0	1109	2.0	10	25.0	0.0	15.0	15.0	100.0	100.0	100.0	0.0	3.0	1.0	1.0	100.0	40.0	25.0	45.0
1	0.0	1.0	1100.0	1101	2.0	1105	2.0	10	25.0	15.0	0.0	15.0	100.0	100.0	100.0	0.0	1.0	3.0	0.0	100.0	40.0	25.0	40.0
1	0.0	1.0	1100.0	1101	1.0	1105	2.0	11	26.0	5.0	5.0	10.0	100.0	100.0	100.0	0.0	3.0	1.0	1.0	100.0	40.0	30.0	50.0
1	0.0	1.0	1100.0	1101	2.0	1109	2.0	11	26.0	5.0	5.0	10.0	100.0	100.0	100.0	0.0	1.0	3.0	0.0	100.0	40.0	30.0	30.0
1	0.0	1.0	1100.0	1101	1.0	1108	2.0	12	27.0	0.0	0.0	0.0	100.0	100.0	100.0	0.0	2.0	2.0	0.0	100.0	40.0	40.0	25.0
1	0.0	1.0	1100.0	1101	2.0	1105	2.0	12	27.0	0.0	0.0	0.0	100.0	100.0	100.0	0.0	2.0	2.0	1.0	100.0	40.0	40.0	45.0
1	0.0	1.0	1100.0	1101	1.0	1105	2.0	13	28.0	40.0	40.0	80.0	100.0	100.0	100.0	0.0	2.0	2.0	1.0	100.0	40.0	-40.0	85.0
1	0.0	1.0	1100.0	1101	2.0	1107	2.0	13	28.0	40.0	40.0	80.0	100.0	100.0	100.0	0.0	2.0	2.0	0.0	100.0	40.0	-40.0	65.0
1	0.0	1.0	1100.0	1101	1.0	1108	2.0	14	29.0	0.0	0.0	0.0	100.0	100.0	100.0	0.0	3.0	1.0	1.0	100.0	40.0	40.0	45.0
1	0.0	1.0	1100.0	1101	2.0	1109	2.0	14	29.0	0.0	0.0	0.0	100.0	100.0	100.0	0.0	1.0	3.0	0.0	100.0	40.0	40.0	25.0
1	0.0	1.0	1100.0	1101	1.0	1109	2.0	15	30.0	0.0	0.0	0.0	100.0	100.0	100.0	0.0	1.0	3.0	0.0	100.0	40.0	40.0	25.0
1	0.0	1.0	1100.0	1101	2.0	1108	2.0	15	30.0	0.0	0.0	0.0	100.0	100.0	100.0	0.0	3.0	1.0	1.0	100.0	40.0	40.0	45.0
1	1.0	11.0	1200.0	1201	1.0	1201	1.0	1	1.0	5.0	7.0	12.0	20.0	50.0	35.0	0.0	1.0	3.0	0.0	50.0	25.0	73.0	30.0
1	1.0	11.0	1200.0	1201	2.0	1202	1.0	1	1.0	7.0	5.0	12.0	50.0	20.0	35.0	0.0	3.0	1.0	1.0	50.0	25.0	73.0	52.0
1	1.0	11.0	1200.0	1201	1.0	1201	1.0	2	2.0	15.0	25.0	40.0	75.0	0.0	37.5	0.0	3.0	1.0	1.0	75.0	32.5	22.5	60.0
1	1.0	11.0	1200.0	1201	2.0	1202	1.0	2	2.0	25.0	15.0	40.0	0.0	75.0	37.5	0.0	1.0	3.0	0.0	75.0	32.5	22.5	50.0
1	1.0	11.0	1200.0	1201	1.0	1201	1.0	3	3.0	1.0	2.0	3.0	0.0	90.0	45.0	0.0	1.0	3.0	0.0	90.0	37.0	46.0	26.0
1	1.0	11.0	1200.0	1201	2.0	1202	1.0	3	3.0	2.0	1.0	3.0	90.0	0.0	45.0	0.0	3.0	1.0	1.0	90.0	37.0	46.0	47.0
1	1.0	11.0	1200.0	1201	1.0	1201	1.0	4	4.0	14.0	8.0	22.0	80.0	80.0	80.0	1.0	2.0	2.0	1.0	80.0	34.0	36.0	58.0
1	1.0	11.0	1200.0	1201	2.0	1202	1.0	4	4.0	8.0	14.0	22.0	80.0	80.0	80.0	0.0	2.0	2.0	0.0	80.0	34.0	36.0	33.0
1	1.0	11.0	1200.0	1201	1.0	1201	1.0	5	5.0	4.0	4.0	8.0	100.0	100.0	100.0	2.0	1.0	3.0	0.0	100.0	40.0	32.0	27.0
1	1.0	11.0	1200.0	1201	2.0	1202	1.0	5	5.0	4.0	4.0	8.0	100.0	100.0	100.0	0.0	3.0	1.0	1.0	100.0	40.0	32.0	49.0
1	1.0	11.0	1200.0	1201	1.0	1201	1.0	6	6.0	7.0	6.0	13.0	80.0	80.0	80.0	0.0	3.0	1.0	1.0	80.0	34.0	45.0	52.0
1	1.0	11.0	1200.0	1201	2.0	1202	1.0	6	6.0	6.0	7.0	13.0	80.0	80.0	80.0	0.0	1.0	3.0	0.0	80.0	34.0	45.0	31.0
1	1.0	11.0	1200.0	1201	1.0	1201	1.0	7	7.0	17.0	3.0	20.0	100.0	100.0	100.0	1.0	1.0	3.0	0.0	100.0	40.0	20.0	41.0
1	1.0	11.0	1200.0	1201	2.0	1202	1.0	7	7.0	3.0	17.0	20.0	100.0	100.0	100.0	0.0	3.0	1.0	1.0	100.0	40.0	20.0	48.0
1	1.0	11.0	1200.0	1201	1.0	1201	1.0	8	8.0	15.0	25.0	40.0	75.0	20.0	47.5	0.0	3.0	1.0	1.0	75.0	32.5	22.5	60.0
1	1.0	11.0	1200.0	1201	2.0	1202	1.0	8	8.0	25.0	15.0	40.0	20.0	75.0	47.5	0.0	1.0	3.0	0.0	75.0	32.5	22.5	50.0
1	1.0	11.0	1200.0	1201	1.0	1201	1.0	9	9.0	11.0	14.0	25.0	25.0	15.0	20.0	0.0	3.0	1.0	1.0	25.0	17.5	82.5	56.0
1	1.0	11.0	1200.0	1201	2.0	1202	1.0	9	9.0	14.0	11.0	25.0	15.0	25.0	20.0	0.0	1.0	3.0	0.0	25.0	17.5	82.5	39.0
1	1.0	11.0	1200.0	1201	1.0	1201	1.0	10	10.0	12.0	16.0	28.0	65.0	25.0	45.0	0.0	3.0	1.0	1.0	65.0	29.5	43.5	57.0
1	1.0	11.0	1200.0	1201	2.0	1202	1.0	10	10.0	16.0	12.0	28.0	25.0	65.0	45.0	0.0	1.0	3.0	0.0	65.0	29.5	43.5	41.0
1	1.0	11.0	1200.0	1201	1.0	1201	1.0	11	11.0	10.0	14.0	24.0	25.0	60.0	42.5	0.0	1.0	3.0	0.0	60.0	28.0	52.0	35.0
1	1.0	11.0	1200.0	1201	2.0	1202	1.0	11	11.0	14.0	10.0	24.0	60.0	25.0	42.5	0.0	3.0	1.0	1.0	60.0	28.0	52.0	59.0
1	1.0	11.0	1200.0	1201	1.0	1201	1.0	12	12.0	3.0	11.0	14.0	50.0	65.0	57.5	0.0	1.0	3.0	0.0	65.0	29.5	57.5	28.0
1	1.0	11.0	1200.0	1201	2.0	1202	1.0	12	12.0	11.0	3.0	14.0	65.0	50.0	57.5	0.0	3.0	1.0	1.0	65.0	29.5	57.5	56.0
1	1.0	11.0	1200.0	1201	1.0	1201	1.0	13	13.0	7.0	17.0	24.0	100.0	25.0	62.5	0.0	3.0	1.0	1.0	100.0	40.0	16.0	52.0
1	1.0	11.0	1200.0	1201	2.0	1202	1.0	13	13.0	17.0	7.0	24.0	25.0	100.0	62.5	0.0	1.0	3.0	0.0	100.0	40.0	16.0	42.0
1	1.0	11.0	1200.0	1201	1.0	1201	1.0	14	14.0	11.0	15.0	26.0	80.0	90.0	85.0	0.0	1.0	3.0	0.0	90.0	37.0	23.0	36.0
1	1.0	11.0	1200.0	1201	2.0	1202	1.0	14	14.0	15.0	11.0	26.0	90.0	80.0	85.0	0.0	3.0	1.0	1.0	90.0	37.0	23.0	60.0
1	1.0	11.0	1200.0	1201	1.0	1201	1.0	15	15.0	8.0	13.0	21.0	100.0	100.0	100.0	0.0	4.0	0.0	1.0	100.0	40.0	19.0	53.0
1	1.0	11.0	1200.0	1201	2.0	1202	1.0	15	15.0	13.0	8.0	21.0	100.0	100.0	100.0	0.0	0.0	4.0	0.0	100.0	40.0	19.0	38.0
0	1.0	10.0	1200.0	1201	1.0	1201	2.0	1	16.0				100.0	100.0	100.0	0.0	3.0	1.0	1.0	100.0	40.0	40.0	45.0
0	1.0	10.0	1200.0	1201	2.0	1202	2.0	1	16.0				100.0	100.0	100.0	0.0	1.0	3.0	0.0	100.0	40.0	40.0	25.0
0	1.0	10.0	1200.0	1201	1.0	1201	2.0	2	17.0				100.0	100.0	100.0	0.0	2.0	2.0	0.0	100.0	40.0	40.0	25.0
0	1.0	10.0	1200.0	1201	2.0	1202	2.0	2	17.0				100.0	100.0	100.0	0.0	2.0	2.0	1.0	100.0	40.0	40.0	45.0
0	1.0	10.0	1200.0	1201	1.0	1201	2.0	3	18.0				100.0	100.0	100.0	0.0	3.0	1.0	1.0	100.0	40.0	40.0	45.0
0	1.0	10.0	1200.0	1201	2.0	1202	2.0	3	18.0				100.0	100.0	100.0	0.0	1.0	3.0	0.0	100.0	40.0	40.0	25.0
0	1.0	10.0	1200.0	1201	1.0	1201	2.0	4	19.0				75.0	75.0	75.0	1.0	1.0	3.0	0.0	75.0	32.5	62.5	24.0
0	1.0	10.0	1200.0	1201	2.0	1202	2.0	4	19.0				75.0	75.0	75.0	0.0	3.0	1.0	1.0	75.0	32.5	62.5	45.0
0	1.0	10.0	1200.0	1201	1.0	1201	2.0	5	20.0				100.0	100.0	100.0	0.0	2.0	2.0	1.0	100.0	40.0	40.0	45.0
0	1.0	10.0	1200.0	1201	2.0	1202	2.0	5	20.0				100.0	100.0	100.0	0.0	2.0	2.0	0.0	100.0	40.0	40.0	25.0
0	1.0	10.0	1200.0	1201	1.0	1201	2.0	6	21.0				25.0	25.0	25.0	0.0	0.0	4.0	0.0	25.0	17.5	107.5	25.0
0	1.0	10.0	1200.0	1201	2.0	1202	2.0	6	21.0				25.0	25.0	25.0	0.0	4.0	0.0	1.0	25.0	17.5	107.5	45.0
0	1.0	10.0	1200.0	1201	1.0	1201	2.0	7	22.0				100.0	100.0	100.0	0.0	2.0	2.0	1.0	100.0	40.0	40.0	45.0
0	1.0	10.0	1200.0	1201	2.0	1202	2.0	7	22.0				100.0	100.0	100.0	0.0	2.0	2.0	0.0	100.0	40.0	40.0	25.0
0	1.0	10.0	1200.0	1201	1.0	1201	2.0	8	23.0				10.0	10.0	10.0	0.0	1.0	3.0	0.0	10.0	13.0	121.0	25.0
0	1.0	10.0	1200.0	1201	2.0	1202	2.0	8	23.0				10.0	10.0	10.0	0.0	3.0	1.0	1.0	10.0	13.0	121.0	45.0
0	1.0	10.0	1200.0	1201	1.0	1201	2.0	9	24.0				100.0	100.0	100.0	0.0	2.0	2.0	0.0	100.0	40.0	40.0	25.0
0	1.0	10.0	1200.0	1201	2.0	1202	2.0	9	24.0				100.0	100.0	100.0	0.0	2.0	2.0	1.0	100.0	40.0	40.0	45.0
0	1.0	10.0	1200.0	1201	1.0	1201	2.0	10	25.0				100.0	100.0	100.0	0.0	1.0	3.0	0.0	100.0	40.0	40.0	25.0
0	1.0	10.0	1200.0	1201	2.0	1202	2.0	10	25.0				100.0	100.0	100.0	0.0	3.0	1.0	1.0	100.0	40.0	40.0	45.0
0	1.0	10.0	1200.0	1201	1.0	1201	2.0	11	26.0				80.0	80.0	80.0	0.0	2.0	2.0	1.0	80.0	34.0	58.0	45.0
0	1.0	10.0	1200.0	1201	2.0	1202	2.0	11	26.0				80.0	80.0	80.0	0.0	2.0	2.0	0.0	80.0	34.0	58.0	25.0
0	1.0	10.0	1200.0	1201	1.0	1201	2.0	12	27.0				95.0	95.0	95.0	0.0	1.0	3.0	0.0	95.0	38.5	44.5	25.0
0	1.0	10.0	1200.0	1201	2.0	1202	2.0	12	27.0				95.0	95.0	95.0	0.0	3.0	1.0	1.0	95.0	38.5	44.5	45.0
0	1.0	10.0	1200.0	1201	1.0	1201	2.0	13	28.0				100.0	100.0	100.0	0.0	2.0	2.0	1.0	100.0	40.0	40.0	45.0
0	1.0	10.0	1200.0	1201	2.0	1202	2.0	13	28.0				100.0	100.0	100.0	0.0	2.0	2.0	0.0	100.0	40.0	40.0	25.0
0	1.0	10.0	1200.0	1201	1.0	1201	2.0	14	29.0				100.0	100.0	100.0	0.0	1.0	3.0	0.0	100.0	40.0	40.0	25.0
0	1.0	10.0	1200.0	1201	2.0	1202	2.0	14	29.0				100.0	100.0	100.0	0.0	3.0	1.0	1.0	100.0	40.0	40.0	45.0
0	1.0	10.0	1200.0	1201	1.0	1201	2.0	15	30.0				100.0	100.0	100.0	0.0	2.0	2.0	1.0	100.0	40.0	40.0	45.0
0	1.0	10.0	1200.0	1201	2.0	1202	2.0	15	30.0				100.0	100.0	100.0	0.0	2.0	2.0	0.0	100.0	40.0	40.0	25.0
0	1.0	10.0	1300.0	1301	1.0	1305	1.0	1	1.0				25.0	50.0	37.5	0.0	1.0	3.0	0.0	50.0	25.0	85.0	25.0
0	1.0	10.0	1300.0	1301	2.0	1306	1.0	1	1.0				50.0	25.0	37.5	0.0	3.0	1.0	1.0	50.0	25.0	85.0	45.0
0	1.0	10.0	1300.0	1301	1.0	1305	1.0	2	2.0				100.0	100.0	100.0	2.0	2.0	2.0	1.0	100.0	40.0	40.0	43.0
0	1.0	10.0	1300.0	1301	2.0	1306	1.0	2	2.0				100.0	100.0	100.0	0.0	2.0	2.0	0.0	100.0	40.0	40.0	25.0
0	1.0	10.0	1300.0	1301	1.0	1305	1.0	3	3.0				100.0	100.0	100.0	2.0	1.0	3.0	0.0	100.0	40.0	40.0	23.0
0	1.0	10.0	1300.0	1301	2.0	1306	1.0	3	3.0				100.0	100.0	100.0	0.0	3.0	1.0	1.0	100.0	40.0	40.0	45.0
0	1.0	10.0	1300.0	1301	1.0	1305	1.0	4	4.0				100.0	100.0	100.0	0.0	4.0	0.0	1.0	100.0	40.0	40.0	45.0
0	1.0	10.0	1300.0	1301	2.0	1306	1.0	4	4.0				100.0	100.0	100.0	0.0	0.0	4.0	0.0	100.0	40.0	40.0	25.0
0	1.0	10.0	1300.0	1301	1.0	1305	1.0	5	5.0				100.0	100.0	100.0	0.0	2.0	2.0	0.0	100.0	40.0	40.0	25.0
0	1.0	10.0	1300.0	1301	2.0	1306	1.0	5	5.0				100.0	100.0	100.0	0.0	2.0	2.0	1.0	100.0	40.0	40.0	45.0
0	1.0	10.0	1300.0	1301	1.0	1305	1.0	6	6.0				100.0	100.0	100.0	0.0	2.0	2.0	1.0	100.0	40.0	40.0	45.0
0	1.0	10.0	1300.0	1301	2.0	1306	1.0	6	6.0				100.0	100.0	100.0	0.0	2.0	2.0	0.0	100.0	40.0	40.0	25.0
0	1.0	10.0	1300.0	1301	1.0	1305	1.0	7	7.0				100.0	100.0	100.0	0.0	1.0	3.0	0.0	100.0	40.0	40.0	25.0
0	1.0	10.0	1300.0	1301	2.0	1306	1.0	7	7.0				100.0	100.0	100.0	0.0	3.0	1.0	1.0	100.0	40.0	40.0	45.0
0	1.0	10.0	1300.0	1301	1.0	1305	1.0	8	8.0				100.0	100.0	100.0	0.0	3.0	1.0	1.0	100.0	40.0	40.0	45.0
0	1.0	10.0	1300.0	1301	2.0	1306	1.0	8	8.0				100.0	100.0	100.0	0.0	1.0	3.0	0.0	100.0	40.0	40.0	25.0
0	1.0	10.0	1300.0	1301	1.0	1305	1.0	9	9.0				100.0	100.0	100.0	0.0	1.0	3.0	0.0	100.0	40.0	40.0	25.0
0	1.0	10.0	1300.0	1301	2.0	1306	1.0	9	9.0				100.0	100.0	100.0	0.0	3.0	1.0	1.0	100.0	40.0	40.0	45.0
0	1.0	10.0	1300.0	1301	1.0	1305	1.0	10	10.0				100.0	100.0	100.0	0.0	3.0	1.0	1.0	100.0	40.0	40.0	45.0
0	1.0	10.0	1300.0	1301	2.0	1306	1.0	10	10.0				100.0	100.0	100.0	0.0	1.0	3.0	0.0	100.0	40.0	40.0	25.0
0	1.0	10.0	1300.0	1301	1.0	1305	1.0	11	11.0				100.0	100.0	100.0	0.0	1.0	3.0	0.0	100.0	40.0	40.0	25.0
0	1.0	10.0	1300.0	1301	2.0	1306	1.0	11	11.0				100.0	100.0	100.0	0.0	3.0	1.0	1.0	100.0	40.0	40.0	45.0
0	1.0	10.0	1300.0	1301	1.0	1305	1.0	12	12.0				100.0	100.0	100.0	0.0	2.0	2.0	0.0	100.0	40.0	40.0	25.0
0	1.0	10.0	1300.0	1301	2.0	1306	1.0	12	12.0				100.0	100.0	100.0	0.0	2.0	2.0	1.0	100.0	40.0	40.0	45.0
0	1.0	10.0	1300.0	1301	1.0	1305	1.0	13	13.0				100.0	100.0	100.0	0.0	3.0	1.0	1.0	100.0	40.0	40.0	45.0
0	1.0	10.0	1300.0	1301	2.0	1306	1.0	13	13.0				100.0	100.0	100.0	1.0	1.0	3.0	0.0	100.0	40.0	40.0	24.0
0	1.0	10.0	1300.0	1301	1.0	1305	1.0	14	14.0				100.0	100.0	100.0	0.0	3.0	1.0	1.0	100.0	40.0	40.0	45.0
0	1.0	10.0	1300.0	1301	2.0	1306	1.0	14	14.0				100.0	100.0	100.0	0.0	1.0	3.0	0.0	100.0	40.0	40.0	25.0
0	1.0	10.0	1300.0	1301	1.0	1305	1.0	15	15.0				100.0	100.0	100.0	0.0	1.0	3.0	0.0	100.0	40.0	40.0	25.0
0	1.0	10.0	1300.0	1301	2.0	1306	1.0	15	15.0				100.0	100.0	100.0	0.0	3.0	1.0	1.0	100.0	40.0	40.0	45.0
1	1.0	11.0	1300.0	1301	1.0	1305	2.0	1	16.0	20.0	20.0	40.0	100.0	25.0	62.5	0.0	3.0	1.0	1.0	100.0	40.0	0.0	65.0
1	1.0	11.0	1300.0	1301	2.0	1306	2.0	1	16.0	20.0	20.0	40.0	25.0	100.0	62.5	0.0	1.0	3.0	0.0	100.0	40.0	0.0	45.0
1	1.0	11.0	1300.0	1301	1.0	1305	2.0	2	17.0	0.0	10.0	10.0	50.0	25.0	37.5	0.0	3.0	1.0	1.0	50.0	25.0	75.0	45.0
1	1.0	11.0	1300.0	1301	2.0	1306	2.0	2	17.0	10.0	0.0	10.0	25.0	50.0	37.5	0.0	1.0	3.0	0.0	50.0	25.0	75.0	35.0
1	1.0	11.0	1300.0	1301	1.0	1305	2.0	3	18.0	10.0	15.0	25.0	25.0	25.0	25.0	0.0	3.0	1.0	1.0	25.0	17.5	82.5	55.0
1	1.0	11.0	1300.0	1301	2.0	1306	2.0	3	18.0	15.0	10.0	25.0	25.0	25.0	25.0	0.0	1.0	3.0	0.0	25.0	17.5	82.5	40.0
1	1.0	11.0	1300.0	1301	1.0	1305	2.0	4	19.0	12.0	15.0	27.0	35.0	20.0	27.5	0.0	3.0	1.0	1.0	35.0	20.5	71.5	57.0
1	1.0	11.0	1300.0	1301	2.0	1306	2.0	4	19.0	15.0	12.0	27.0	20.0	35.0	27.5	0.0	1.0	3.0	0.0	35.0	20.5	71.5	40.0
1	1.0	11.0	1300.0	1301	1.0	1305	2.0	5	20.0	10.0	17.0	27.0	100.0	100.0	100.0	1.0	3.0	1.0	1.0	100.0	40.0	13.0	54.0
1	1.0	11.0	1300.0	1301	2.0	1306	2.0	5	20.0	17.0	10.0	27.0	100.0	100.0	100.0	0.0	1.0	3.0	0.0	100.0	40.0	13.0	42.0
1	1.0	11.0	1300.0	1301	1.0	1305	2.0	6	21.0	0.0	0.0	0.0	100.0	100.0	100.0	0.0	1.0	3.0	0.0	100.0	40.0	40.0	25.0
1	1.0	11.0	1300.0	1301	2.0	1306	2.0	6	21.0	0.0	0.0	0.0	100.0	100.0	100.0	0.0	3.0	1.0	1.0	100.0	40.0	40.0	45.0
1	1.0	11.0	1300.0	1301	1.0	1305	2.0	7	22.0	0.0	10.0	10.0	100.0	100.0	100.0	0.0	4.0	0.0	1.0	100.0	40.0	30.0	45.0
1	1.0	11.0	1300.0	1301	2.0	1306	2.0	7	22.0	10.0	0.0	10.0	100.0	100.0	100.0	0.0	0.0	4.0	0.0	100.0	40.0	30.0	35.0
1	1.0	11.0	1300.0	1301	1.0	1305	2.0	8	23.0	0.0	0.0	0.0	100.0	100.0	100.0	1.0	2.0	2.0	1.0	100.0	40.0	40.0	44.0
1	1.0	11.0	1300.0	1301	2.0	1306	2.0	8	23.0	0.0	0.0	0.0	100.0	100.0	100.0	0.0	2.0	2.0	0.0	100.0	40.0	40.0	25.0
1	1.0	11.0	1300.0	1301	1.0	1305	2.0	9	24.0	0.0	0.0	0.0	100.0	100.0	100.0	0.0	2.0	2.0	1.0	100.0	40.0	40.0	45.0
1	1.0	11.0	1300.0	1301	2.0	1306	2.0	9	24.0	0.0	0.0	0.0	100.0	100.0	100.0	0.0	2.0	2.0	0.0	100.0	40.0	40.0	25.0
1	1.0	11.0	1300.0	1301	1.0	1305	2.0	10	25.0	10.0	20.0	30.0	75.0	70.0	72.5	0.0	3.0	1.0	1.0	75.0	32.5	32.5	55.0
1	1.0	11.0	1300.0	1301	2.0	1306	2.0	10	25.0	20.0	10.0	30.0	70.0	75.0	72.5	0.0	1.0	3.0	0.0	75.0	32.5	32.5	45.0
1	1.0	11.0	1300.0	1301	1.0	1305	2.0	11	26.0	12.0	21.0	33.0	75.0	50.0	62.5	0.0	3.0	1.0	1.0	75.0	32.5	29.5	57.0
1	1.0	11.0	1300.0	1301	2.0	1306	2.0	11	26.0	21.0	12.0	33.0	50.0	75.0	62.5	0.0	1.0	3.0	0.0	75.0	32.5	29.5	46.0
1	1.0	11.0	1300.0	1301	1.0	1305	2.0	12	27.0	21.0	21.0	42.0	100.0	100.0	100.0	2.0	3.0	1.0	1.0	100.0	40.0	-2.0	64.0
1	1.0	11.0	1300.0	1301	2.0	1306	2.0	12	27.0	21.0	21.0	42.0	100.0	100.0	100.0	0.0	1.0	3.0	0.0	100.0	40.0	-2.0	46.0
1	1.0	11.0	1300.0	1301	1.0	1305	2.0	13	28.0	0.0	0.0	0.0	100.0	100.0	100.0	1.0	1.0	3.0	0.0	100.0	40.0	40.0	24.0
1	1.0	11.0	1300.0	1301	2.0	1306	2.0	13	28.0	0.0	0.0	0.0	100.0	100.0	100.0	0.0	3.0	1.0	1.0	100.0	40.0	40.0	45.0
1	1.0	11.0	1300.0	1301	1.0	1305	2.0	14	29.0	0.0	0.0	0.0	100.0	100.0	100.0	0.0	2.0	2.0	0.0	100.0	40.0	40.0	25.0
1	1.0	11.0	1300.0	1301	2.0	1306	2.0	14	29.0	0.0	0.0	0.0	100.0	100.0	100.0	0.0	2.0	2.0	1.0	100.0	40.0	40.0	45.0
1	1.0	11.0	1300.0	1301	1.0	1305	2.0	15	30.0	0.0	0.0	0.0	95.0	95.0	95.0	0.0	2.0	2.0	0.0	95.0	38.5	44.5	25.0
1	1.0	11.0	1300.0	1301	2.0	1306	2.0	15	30.0	0.0	0.0	0.0	95.0	95.0	95.0	0.0	2.0	2.0	1.0	95.0	38.5	44.5	45.0
0	1.0	10.0	1300.0	1302	1.0	1311	1.0	1	1.0				100.0	25.0	62.5	1.0	3.0	1.0	1.0	100.0	40.0	40.0	44.0
0	1.0	10.0	1300.0	1302	2.0	1312	1.0	1	1.0				25.0	100.0	62.5	0.0	1.0	3.0	0.0	100.0	40.0	40.0	25.0
0	1.0	10.0	1300.0	1302	1.0	1311	1.0	2	2.0				100.0	100.0	100.0	0.0	3.0	1.0	1.0	100.0	40.0	40.0	45.0
0	1.0	10.0	1300.0	1302	2.0	1312	1.0	2	2.0				100.0	100.0	100.0	0.0	1.0	3.0	0.0	100.0	40.0	40.0	25.0
0	1.0	10.0	1300.0	1302	1.0	1311	1.0	3	3.0				100.0	100.0	100.0	0.0	3.0	1.0	1.0	100.0	40.0	40.0	45.0
0	1.0	10.0	1300.0	1302	2.0	1312	1.0	3	3.0				100.0	100.0	100.0	0.0	1.0	3.0	0.0	100.0	40.0	40.0	25.0
0	1.0	10.0	1300.0	1302	1.0	1311	1.0	4	4.0				100.0	100.0	100.0	0.0	3.0	1.0	1.0	100.0	40.0	40.0	45.0
0	1.0	10.0	1300.0	1302	2.0	1312	1.0	4	4.0				100.0	100.0	100.0	0.0	1.0	3.0	0.0	100.0	40.0	40.0	25.0
0	1.0	10.0	1300.0	1302	1.0	1311	1.0	5	5.0				100.0	100.0	100.0	0.0	3.0	1.0	1.0	100.0	40.0	40.0	45.0
0	1.0	10.0	1300.0	1302	2.0	1312	1.0	5	5.0				100.0	100.0	100.0	0.0	1.0	3.0	0.0	100.0	40.0	40.0	25.0
